trials_2.thisRepN,trials_2.thisTrialN,trials_2.thisN,trials_2.thisIndex,trials_2.ran,AL,L1,sound_path,AFC1,AFC2,AFC3,AFC1_color,AFC2_color,AFC3_color,recognition_text,recognition_correctness,recall_AL,recall_L1,SEM_AL,variant,date,expName,psychopyVersion,OS,frameRate,key_resp_2.keys,trials_3.thisRepN,trials_3.thisTrialN,trials_3.thisN,trials_3.thisIndex,trials_3.ran,key_resp_2.rt,key_resp.keys,key_resp.rt,recall_rt,recall_text,trials.thisRepN,trials.thisTrialN,trials.thisN,trials.thisIndex,trials.ran,trials_4.thisRepN,trials_4.thisTrialN,trials_4.thisN,trials_4.thisIndex,trials_4.ran,rows,key_resp_10.keys,key_resp_10.rt,key_resp_3.keys,trials_5.thisRepN,trials_5.thisTrialN,trials_5.thisN,trials_5.thisIndex,trials_5.ran,key_resp_3.rt,recall_test_rt,recall_test_text,key_resp_4.keys,trials_6.thisRepN,trials_6.thisTrialN,trials_6.thisN,trials_6.thisIndex,trials_6.ran,key_resp_4.rt,key_resp_5.keys,key_resp_5.rt,trials_7.thisRepN,trials_7.thisTrialN,trials_7.thisN,trials_7.thisIndex,trials_7.ran
0,0,0,0,1,derartu,самолет,derartu.wav,наперсток,самолет,конверт,black,green,black,derartu = свисток?,0,nevetu,шашлык,vantimu,0,2020-05-13_12h51.47.900,words,2020.1.2,Win32,60,,,,,,,,,,,,,,,,,,,,,,,,,,,,,,,,,,,,,,,,,,,,,,,
0,1,1,1,1,asamu,шприц,asamu.wav,одуванчик,флаг,шприц,black,black,green,asamu = клубок?,0,vortule,роза,mubale,0,2020-05-13_12h51.47.900,words,2020.1.2,Win32,60,,,,,,,,,,,,,,,,,,,,,,,,,,,,,,,,,,,,,,,,,,,,,,,
0,2,2,2,1,farimu,конверт,farimu.wav,мяч,конверт,компас,black,green,black,farimu = конверт?,1,ekiste,качели,bokente,0,2020-05-13_12h51.47.900,words,2020.1.2,Win32,60,,,,,,,,,,,,,,,,,,,,,,,,,,,,,,,,,,,,,,,,,,,,,,,
0,3,3,3,1,vortule,роза,vortule.wav,роза,мельница,коридор,green,black,black,vortule = роза?,1,mubale,намордник,kavitu,0,2020-05-13_12h51.47.900,words,2020.1.2,Win32,60,,,,,,,,,,,,,,,,,,,,,,,,,,,,,,,,,,,,,,,,,,,,,,,
0,4,4,4,1,topeme,терка,topeme.wav,качели,домино,терка,black,black,green,topeme = терка?,1,reskane,стрела,rantare,0,2020-05-13_12h51.47.900,words,2020.1.2,Win32,60,,,,,,,,,,,,,,,,,,,,,,,,,,,,,,,,,,,,,,,,,,,,,,,
0,5,5,5,1,kavenu,пальма,kavenu.wav,шприц,свисток,пальма,black,black,green,kavenu = домино?,0,limate,удочка,tekuru,0,2020-05-13_12h51.47.900,words,2020.1.2,Win32,60,,,,,,,,,,,,,,,,,,,,,,,,,,,,,,,,,,,,,,,,,,,,,,,
0,6,6,6,1,farantu,точилка,farantu.wav,свисток,точилка,шашлык,black,green,black,farantu = точилка?,1,sankadu,домино,befadu,0,2020-05-13_12h51.47.900,words,2020.1.2,Win32,60,,,,,,,,,,,,,,,,,,,,,,,,,,,,,,,,,,,,,,,,,,,,,,,
0,7,7,7,1,pafinu,ремень,pafinu.wav,ремень,маяк,шашлык,green,black,black,pafinu = ремень?,1,morvidu,гранат,avade,0,2020-05-13_12h51.47.900,words,2020.1.2,Win32,60,,,,,,,,,,,,,,,,,,,,,,,,,,,,,,,,,,,,,,,,,,,,,,,
0,8,8,8,1,nevetu,шашлык,nevetu.wav,шашлык,копилка,стрела,green,black,black,nevetu = шашлык?,1,vantimu,пистолет,makevu,0,2020-05-13_12h51.47.900,words,2020.1.2,Win32,60,,,,,,,,,,,,,,,,,,,,,,,,,,,,,,,,,,,,,,,,,,,,,,,
,,,,,derartu,самолет,derartu.wav,наперсток,самолет,конверт,black,green,black,derartu = свисток?,0,nevetu,шашлык,vantimu,0,2020-05-13_12h51.47.900,words,2020.1.2,Win32,60,,0,0,0,0,1,,,,,,,,,,,,,,,,,,,,,,,,,,,,,,,,,,,,,,,,,
,,,,,asamu,шприц,asamu.wav,одуванчик,флаг,шприц,black,black,green,asamu = клубок?,0,vortule,роза,mubale,0,2020-05-13_12h51.47.900,words,2020.1.2,Win32,60,right,0,1,1,1,1,1.61815,,,,,,,,,,,,,,,,,,,,,,,,,,,,,,,,,,,,,,,,
,,,,,farimu,конверт,farimu.wav,мяч,конверт,компас,black,green,black,farimu = конверт?,1,ekiste,качели,bokente,0,2020-05-13_12h51.47.900,words,2020.1.2,Win32,60,down,0,2,2,2,1,2.277715,,,,,,,,,,,,,,,,,,,,,,,,,,,,,,,,,,,,,,,,
,,,,,vortule,роза,vortule.wav,роза,мельница,коридор,green,black,black,vortule = роза?,1,mubale,намордник,kavitu,0,2020-05-13_12h51.47.900,words,2020.1.2,Win32,60,left,0,3,3,3,1,2.24234,,,,,,,,,,,,,,,,,,,,,,,,,,,,,,,,,,,,,,,,
,,,,,topeme,терка,topeme.wav,качели,домино,терка,black,black,green,topeme = терка?,1,reskane,стрела,rantare,0,2020-05-13_12h51.47.900,words,2020.1.2,Win32,60,right,0,4,4,4,1,2.15438,,,,,,,,,,,,,,,,,,,,,,,,,,,,,,,,,,,,,,,,
,,,,,kavenu,пальма,kavenu.wav,шприц,свисток,пальма,black,black,green,kavenu = домино?,0,limate,удочка,tekuru,0,2020-05-13_12h51.47.900,words,2020.1.2,Win32,60,right,0,5,5,5,1,2.728195,,,,,,,,,,,,,,,,,,,,,,,,,,,,,,,,,,,,,,,,
,,,,,farantu,точилка,farantu.wav,свисток,точилка,шашлык,black,green,black,farantu = точилка?,1,sankadu,домино,befadu,0,2020-05-13_12h51.47.900,words,2020.1.2,Win32,60,,0,6,6,6,1,,,,,,,,,,,,,,,,,,,,,,,,,,,,,,,,,,,,,,,,,
,,,,,pafinu,ремень,pafinu.wav,ремень,маяк,шашлык,green,black,black,pafinu = ремень?,1,morvidu,гранат,avade,0,2020-05-13_12h51.47.900,words,2020.1.2,Win32,60,down,0,7,7,7,1,1.86476,,,,,,,,,,,,,,,,,,,,,,,,,,,,,,,,,,,,,,,,
,,,,,nevetu,шашлык,nevetu.wav,шашлык,копилка,стрела,green,black,black,nevetu = шашлык?,1,vantimu,пистолет,makevu,0,2020-05-13_12h51.47.900,words,2020.1.2,Win32,60,left,0,8,8,8,1,1.819195,,,,,,,,,,,,,,,,,,,,,,,,,,,,,,,,,,,,,,,,
,,,,,potabu,маяк,potabu.wav,маяк,клубок,наперсток,green,black,black,potabu = маяк?,1,kambipu,колокол,derene,0,2020-05-13_12h51.47.900,words,2020.1.2,Win32,60,left,0,9,9,9,1,1.852565,,,,,,,,,,,,,,,,,,,,,,,,,,,,,,,,,,,,,,,,
,,,,,derartu,самолет,derartu.wav,наперсток,самолет,конверт,black,green,black,derartu = свисток?,0,nevetu,шашлык,vantimu,0,2020-05-13_12h51.47.900,words,2020.1.2,Win32,60,,,,,,,,"[""f"",""o"",""r"",""a"",""n"",""t"",""u"",""return""]","[2.3949350000002596,2.6258899999993446,2.8179049999998824,2.9378949999991164,3.347570000001724,3.8098549999995157,4.065859999998793,4.489854999999807]",4.489855,forantu,0,0,0,0,1,,,,,,,,,,,,,,,,,,,,,,,,,,,,,,,
,,,,,asamu,шприц,asamu.wav,одуванчик,флаг,шприц,black,black,green,asamu = клубок?,0,vortule,роза,mubale,0,2020-05-13_12h51.47.900,words,2020.1.2,Win32,60,,,,,,,,"[""p"",""o"",""t"",""a"",""b"",""u"",""return""]","[2.2927600000002712,2.532725000000937,2.6927900000009686,2.7970950000017183,3.132675000000745,3.268674999999348,3.820705000001908]",3.820705,potabu,0,1,1,1,1,,,,,,,,,,,,,,,,,,,,,,,,,,,,,,,
,,,,,farimu,конверт,farimu.wav,мяч,конверт,компас,black,green,black,farimu = конверт?,1,ekiste,качели,bokente,0,2020-05-13_12h51.47.900,words,2020.1.2,Win32,60,,,,,,,,"[""p"",""o"",""t"",""a"",""b"",""u"",""return""]","[3.391939999997703,3.6974300000001676,4.023939999999129,4.103909999997995,4.423914999999397,4.535819999997329,4.714384999999311]",4.714385,potabu,0,2,2,2,1,,,,,,,,,,,,,,,,,,,,,,,,,,,,,,,
,,,,,vortule,роза,vortule.wav,роза,мельница,коридор,green,black,black,vortule = роза?,1,mubale,намордник,kavitu,0,2020-05-13_12h51.47.900,words,2020.1.2,Win32,60,,,,,,,,"[""v"",""e"",""r"",""i"",""m"",""e"",""return""]","[3.4748600000020815,3.7542150000008405,3.978240000000369,4.11446000000069,4.322025000001304,4.425924999999552,4.530470000001515]",4.53047,verime,0,3,3,3,1,,,,,,,,,,,,,,,,,,,,,,,,,,,,,,,
,,,,,topeme,терка,topeme.wav,качели,домино,терка,black,black,green,topeme = терка?,1,reskane,стрела,rantare,0,2020-05-13_12h51.47.900,words,2020.1.2,Win32,60,,,,,,,,"[""t"",""o"",""r"",""i"",""m"",""e"",""return""]","[3.65309999999954,4.7168149999997695,5.285485000000335,5.444810000000871,5.652734999999666,5.740614999998797,5.836714999997639]",5.836715,torime,0,4,4,4,1,,,,,,,,,,,,,,,,,,,,,,,,,,,,,,,
,,,,,kavenu,пальма,kavenu.wav,шприц,свисток,пальма,black,black,green,kavenu = домино?,0,limate,удочка,tekuru,0,2020-05-13_12h51.47.900,words,2020.1.2,Win32,60,,,,,,,,"[""p"",""o"",""t"",""a"",""b"",""u"",""return""]","[1.6226649999989604,1.8866349999989325,2.49489000000176,2.702610000000277,3.2145799999998417,3.2943300000006275,3.454604999998992]",3.454605,potabu,0,5,5,5,1,,,,,,,,,,,,,,,,,,,,,,,,,,,,,,,
,,,,,farantu,точилка,farantu.wav,свисток,точилка,шашлык,black,green,black,farantu = точилка?,1,sankadu,домино,befadu,0,2020-05-13_12h51.47.900,words,2020.1.2,Win32,60,,,,,,,,"[""t"",""o"",""r"",""i"",""m"",""e"",""return""]","[2.9396149999993213,3.4108650000016496,4.34829499999978,4.442719999999099,4.65878000000157,4.748494999999821,4.858700000000681]",4.8587,torime,0,6,6,6,1,,,,,,,,,,,,,,,,,,,,,,,,,,,,,,,
,,,,,pafinu,ремень,pafinu.wav,ремень,маяк,шашлык,green,black,black,pafinu = ремень?,1,morvidu,гранат,avade,0,2020-05-13_12h51.47.900,words,2020.1.2,Win32,60,,,,,,,,"[""p"",""o"",""t"",""a"",""b"",""u"",""return""]","[2.247299999999086,2.4696549999971467,2.949704999999028,3.431024999998101,4.333629999997356,4.40558499999679,4.550124999997934]",4.550125,potabu,0,7,7,7,1,,,,,,,,,,,,,,,,,,,,,,,,,,,,,,,
,,,,,nevetu,шашлык,nevetu.wav,шашлык,копилка,стрела,green,black,black,nevetu = шашлык?,1,vantimu,пистолет,makevu,0,2020-05-13_12h51.47.900,words,2020.1.2,Win32,60,,,,,,,,"[""v"",""o"",""r"",""a"",""n"",""t"",""u"",""return""]","[3.215789999998435,3.351774999999236,3.5917699999990873,3.7917299999971874,3.967720000000554,4.135689999999215,4.231809999997495,4.383879999997646]",4.38388,vorantu,0,8,8,8,1,,,,,,,,,,,,,,,,,,,,,,,,,,,,,,,
,,,,,potabu,маяк,potabu.wav,маяк,клубок,наперсток,green,black,black,potabu = маяк?,1,kambipu,колокол,derene,0,2020-05-13_12h51.47.900,words,2020.1.2,Win32,60,,,,,,,,"[""p"",""o"",""t"",""a"",""b"",""u"",""return""]","[3.907715000001076,4.114985000000047,4.6749500000005355,4.764290000002745,5.138925000002871,5.397650000002557,5.4430050000008805]",5.443005,potabu,0,9,9,9,1,,,,,,,,,,,,,,,,,,,,,,,,,,,,,,,
,,,,,,,,,,,,,,,,,,,0,2020-05-13_12h51.47.900,words,2020.1.2,Win32,60,,,,,,,,,,,,,,,,,0,0,0,0,1,0:10,,,,,,,,,,,,,,,,,,,,,,,,,
0,0,0,0,1,bokente,костыль,bokente.wav,костыль,пальма,кроссворд,green,black,black,bokente = микрофон?,0,farantu,точилка,sankadu,0,2020-05-13_12h51.47.900,words,2020.1.2,Win32,60,,,,,,,,,,,,,,,,,,,,,,,,,,,,,,,,,,,,,,,,,,,,,,,
0,1,1,1,1,eskife,одуванчик,eskife.wav,компас,гвоздь,одуванчик,black,black,green,eskife = одуванчик?,1,kovaru,утюг,tinfetu,0,2020-05-13_12h51.47.900,words,2020.1.2,Win32,60,,,,,,,,,,,,,,,,,,,,,,,,,,,,,,,,,,,,,,,,,,,,,,,
0,2,2,2,1,kovaru,утюг,kovaru.wav,аквариум,утюг,стрела,black,green,black,kovaru = мяч?,0,tinfetu,микрофон,kasfine,0,2020-05-13_12h51.47.900,words,2020.1.2,Win32,60,,,,,,,,,,,,,,,,,,,,,,,,,,,,,,,,,,,,,,,,,,,,,,,
0,3,3,3,1,sankadu,домино,sankadu.wav,стрела,домино,колокол,black,green,black,sankadu = гвоздь?,0,befadu,мяч,kavenu,0,2020-05-13_12h51.47.900,words,2020.1.2,Win32,60,,,,,,,,,,,,,,,,,,,,,,,,,,,,,,,,,,,,,,,,,,,,,,,
0,4,4,4,1,ekiste,качели,ekiste.wav,качели,самолет,пистолет,green,black,black,ekiste = кроссворд?,0,bokente,костыль,farantu,0,2020-05-13_12h51.47.900,words,2020.1.2,Win32,60,,,,,,,,,,,,,,,,,,,,,,,,,,,,,,,,,,,,,,,,,,,,,,,
0,5,5,5,1,apokte,костюм,apokte.wav,маяк,гранат,костюм,black,black,green,apokte = копилка?,0,farimu,конверт,ekiste,0,2020-05-13_12h51.47.900,words,2020.1.2,Win32,60,,,,,,,,,,,,,,,,,,,,,,,,,,,,,,,,,,,,,,,,,,,,,,,
0,6,6,6,1,derene,стол,derene.wav,намордник,компас,стол,black,black,green,derene = самолет?,0,potabu,маяк,kambipu,0,2020-05-13_12h51.47.900,words,2020.1.2,Win32,60,,,,,,,,,,,,,,,,,,,,,,,,,,,,,,,,,,,,,,,,,,,,,,,
0,7,7,7,1,ediste,кроссворд,ediste.wav,гвоздь,мельница,кроссворд,black,black,green,ediste = стол?,0,felkure,веер,apokte,0,2020-05-13_12h51.47.900,words,2020.1.2,Win32,60,,,,,,,,,,,,,,,,,,,,,,,,,,,,,,,,,,,,,,,,,,,,,,,
,,,,,bokente,костыль,bokente.wav,костыль,пальма,кроссворд,green,black,black,bokente = микрофон?,0,farantu,точилка,sankadu,0,2020-05-13_12h51.47.900,words,2020.1.2,Win32,60,left,0,0,0,0,1,1.79711,,,,,,,,,,,,,,,,,,,,,,,,,,,,,,,,,,,,,,,,
,,,,,eskife,одуванчик,eskife.wav,компас,гвоздь,одуванчик,black,black,green,eskife = одуванчик?,1,kovaru,утюг,tinfetu,0,2020-05-13_12h51.47.900,words,2020.1.2,Win32,60,right,0,1,1,1,1,1.79605,,,,,,,,,,,,,,,,,,,,,,,,,,,,,,,,,,,,,,,,
,,,,,kovaru,утюг,kovaru.wav,аквариум,утюг,стрела,black,green,black,kovaru = мяч?,0,tinfetu,микрофон,kasfine,0,2020-05-13_12h51.47.900,words,2020.1.2,Win32,60,down,0,2,2,2,1,1.551975,,,,,,,,,,,,,,,,,,,,,,,,,,,,,,,,,,,,,,,,
,,,,,sankadu,домино,sankadu.wav,стрела,домино,колокол,black,green,black,sankadu = гвоздь?,0,befadu,мяч,kavenu,0,2020-05-13_12h51.47.900,words,2020.1.2,Win32,60,down,0,3,3,3,1,1.57073,,,,,,,,,,,,,,,,,,,,,,,,,,,,,,,,,,,,,,,,
,,,,,ekiste,качели,ekiste.wav,качели,самолет,пистолет,green,black,black,ekiste = кроссворд?,0,bokente,костыль,farantu,0,2020-05-13_12h51.47.900,words,2020.1.2,Win32,60,left,0,4,4,4,1,1.98067,,,,,,,,,,,,,,,,,,,,,,,,,,,,,,,,,,,,,,,,
,,,,,apokte,костюм,apokte.wav,маяк,гранат,костюм,black,black,green,apokte = копилка?,0,farimu,конверт,ekiste,0,2020-05-13_12h51.47.900,words,2020.1.2,Win32,60,right,0,5,5,5,1,2.424255,,,,,,,,,,,,,,,,,,,,,,,,,,,,,,,,,,,,,,,,
,,,,,derene,стол,derene.wav,намордник,компас,стол,black,black,green,derene = самолет?,0,potabu,маяк,kambipu,0,2020-05-13_12h51.47.900,words,2020.1.2,Win32,60,right,0,6,6,6,1,0.8992,,,,,,,,,,,,,,,,,,,,,,,,,,,,,,,,,,,,,,,,
,,,,,ediste,кроссворд,ediste.wav,гвоздь,мельница,кроссворд,black,black,green,ediste = стол?,0,felkure,веер,apokte,0,2020-05-13_12h51.47.900,words,2020.1.2,Win32,60,right,0,7,7,7,1,2.1288,,,,,,,,,,,,,,,,,,,,,,,,,,,,,,,,,,,,,,,,
,,,,,kankeru,компас,kankeru.wav,компас,клубок,костыль,green,black,black,kankeru = компас?,1,ediste,кроссворд,felkure,0,2020-05-13_12h51.47.900,words,2020.1.2,Win32,60,left,0,8,8,8,1,2.735835,,,,,,,,,,,,,,,,,,,,,,,,,,,,,,,,,,,,,,,,
,,,,,bokente,костыль,bokente.wav,костыль,пальма,кроссворд,green,black,black,bokente = микрофон?,0,farantu,точилка,sankadu,0,2020-05-13_12h51.47.900,words,2020.1.2,Win32,60,,,,,,,,"[""b"",""o"",""k"",""a"",""r"",""t"",""e"",""return""]","[1.7570850000011546,1.9163049999989425,2.164359999998908,2.244324999999776,2.6443099999997344,3.1402899999994247,3.2762599999987287,3.3979849999996645]",3.397985,bokarte,0,0,0,0,1,,,,,,,,,,,,,,,,,,,,,,,,,,,,,,,
,,,,,eskife,одуванчик,eskife.wav,компас,гвоздь,одуванчик,black,black,green,eskife = одуванчик?,1,kovaru,утюг,tinfetu,0,2020-05-13_12h51.47.900,words,2020.1.2,Win32,60,,,,,,,,"[""e"",""s"",""k"",""i"",""m"",""e"",""return""]","[0.9751749999995809,1.255204999997602,1.6871350000001257,2.064444999999921,2.3590650000004985,2.6475049999972384,3.5358500000002095]",3.53585,eskime,0,1,1,1,1,,,,,,,,,,,,,,,,,,,,,,,,,,,,,,,
,,,,,kovaru,утюг,kovaru.wav,аквариум,утюг,стрела,black,green,black,kovaru = мяч?,0,tinfetu,микрофон,kasfine,0,2020-05-13_12h51.47.900,words,2020.1.2,Win32,60,,,,,,,,"[""k"",""o"",""v"",""a"",""n"",""t"",""e"",""return""]","[0.2821900000017763,0.849870000001772,1.7218549999998345,1.82579500000071,2.1313499999997134,2.4818650000015623,2.617775000002382,2.7378000000026077]",2.7378,kovante,0,2,2,2,1,,,,,,,,,,,,,,,,,,,,,,,,,,,,,,,
,,,,,sankadu,домино,sankadu.wav,стрела,домино,колокол,black,green,black,sankadu = гвоздь?,0,befadu,мяч,kavenu,0,2020-05-13_12h51.47.900,words,2020.1.2,Win32,60,,,,,,,,"[""s"",""a"",""n"",""k"",""t"",""i"",""m"",""e"",""return""]","[2.01472000000291,2.125115000002552,2.453125,2.773055000001534,3.2210550000017975,3.3090350000020976,3.501025000001448,3.597670000002836,3.757125000000144]",3.757125,sanktime,0,3,3,3,1,,,,,,,,,,,,,,,,,,,,,,,,,,,,,,,
,,,,,ekiste,качели,ekiste.wav,качели,самолет,пистолет,green,black,black,ekiste = кроссворд?,0,bokente,костыль,farantu,0,2020-05-13_12h51.47.900,words,2020.1.2,Win32,60,,,,,,,,"[""e"",""k"",""i"",""s"",""t"",""e"",""return""]","[0.8721800000020608,1.0561049999996044,1.2807300000021655,1.4080649999995671,1.6643849999999816,1.7281399999991436,2.2644900000013877]",2.26449,ekiste,0,4,4,4,1,,,,,,,,,,,,,,,,,,,,,,,,,,,,,,,
,,,,,apokte,костюм,apokte.wav,маяк,гранат,костюм,black,black,green,apokte = копилка?,0,farimu,конверт,ekiste,0,2020-05-13_12h51.47.900,words,2020.1.2,Win32,60,,,,,,,,"[""a"",""p"",""j"",""d"",""i"",""m"",""e"",""return""]","[2.7815150000024005,3.154710000002524,3.6828000000023167,4.258690000002389,4.458630000000994,4.650639999999839,4.730935000003171,4.810665000000824]",4.810665,apjdime,0,5,5,5,1,,,,,,,,,,,,,,,,,,,,,,,,,,,,,,,
,,,,,derene,стол,derene.wav,намордник,компас,стол,black,black,green,derene = самолет?,0,potabu,маяк,kambipu,0,2020-05-13_12h51.47.900,words,2020.1.2,Win32,60,,,,,,,,"[""d"",""e"",""r"",""e"",""n"",""e"",""return""]","[1.022404999999651,1.247739999998771,1.5103600000002189,1.622319999998524,1.9262999999990598,2.054249999997353,2.254365000000689]",2.254365,derene,0,6,6,6,1,,,,,,,,,,,,,,,,,,,,,,,,,,,,,,,
,,,,,ediste,кроссворд,ediste.wav,гвоздь,мельница,кроссворд,black,black,green,ediste = стол?,0,felkure,веер,apokte,0,2020-05-13_12h51.47.900,words,2020.1.2,Win32,60,,,,,,,,"[""e"",""d"",""i"",""s"",""t"",""e"",""return""]","[0.9044149999972433,1.383964999997204,1.9358899999970731,2.3918549999980883,2.703794999997683,2.775869999997667,3.0557999999982144]",3.0558,ediste,0,7,7,7,1,,,,,,,,,,,,,,,,,,,,,,,,,,,,,,,
,,,,,kankeru,компас,kankeru.wav,компас,клубок,костыль,green,black,black,kankeru = компас?,1,ediste,кроссворд,felkure,0,2020-05-13_12h51.47.900,words,2020.1.2,Win32,60,,,,,,,,"[""k"",""a"",""n"",""k"",""e"",""r"",""u"",""return""]","[1.082865000000254,1.5473600000005376,1.9806049999970128,3.323544999999285,3.5147949999991965,3.7801599999984887,3.9707600000002117,4.380264999999781]",4.380265,kankeru,0,8,8,8,1,,,,,,,,,,,,,,,,,,,,,,,,,,,,,,,
,,,,,,,,,,,,,,,,,,,0,2020-05-13_12h51.47.900,words,2020.1.2,Win32,60,,,,,,,,,,,,,,,,,0,1,1,1,1,11:20,,,,,,,,,,,,,,,,,,,,,,,,,
0,0,0,0,1,enkene,коридор,enkene.wav,коридор,удочка,роза,green,black,black,enkene = коридор?,1,eskife,одуванчик,kovaru,0,2020-05-13_12h51.47.900,words,2020.1.2,Win32,60,,,,,,,,,,,,,,,,,,,,,,,,,,,,,,,,,,,,,,,,,,,,,,,
0,1,1,1,1,denrete,свисток,denrete.wav,стол,пальма,свисток,black,black,green,denrete = костыль?,0,pafinu,ремень,morvidu,0,2020-05-13_12h51.47.900,words,2020.1.2,Win32,60,,,,,,,,,,,,,,,,,,,,,,,,,,,,,,,,,,,,,,,,,,,,,,,
0,2,2,2,1,tinfetu,микрофон,tinfetu.wav,стрела,микрофон,пальма,black,green,black,tinfetu = колбаса?,0,kasfine,мельница,kankeru,0,2020-05-13_12h51.47.900,words,2020.1.2,Win32,60,,,,,,,,,,,,,,,,,,,,,,,,,,,,,,,,,,,,,,,,,,,,,,,
0,3,3,3,1,tekuru,хобот,tekuru.wav,точилка,роза,хобот,black,black,green,tekuru = костюм?,0,tuvene,ведро,akufu,0,2020-05-13_12h51.47.900,words,2020.1.2,Win32,60,,,,,,,,,,,,,,,,,,,,,,,,,,,,,,,,,,,,,,,,,,,,,,,
0,4,4,4,1,akete,колбаса,akete.wav,качели,хобот,колбаса,black,black,green,akete = мельница?,0,derartu,самолет,nevetu,0,2020-05-13_12h51.47.900,words,2020.1.2,Win32,60,,,,,,,,,,,,,,,,,,,,,,,,,,,,,,,,,,,,,,,,,,,,,,,
0,5,5,5,1,avade,флаг,avade.wav,ремень,стрела,флаг,black,black,green,avade = утюг?,0,topeme,терка,reskane,0,2020-05-13_12h51.47.900,words,2020.1.2,Win32,60,,,,,,,,,,,,,,,,,,,,,,,,,,,,,,,,,,,,,,,,,,,,,,,
0,6,6,6,1,kavitu,копилка,kavitu.wav,веер,шашлык,копилка,black,black,green,kavitu = шприц?,0,enkene,коридор,eskife,0,2020-05-13_12h51.47.900,words,2020.1.2,Win32,60,,,,,,,,,,,,,,,,,,,,,,,,,,,,,,,,,,,,,,,,,,,,,,,
0,7,7,7,1,vantimu,пистолет,vantimu.wav,пистолет,одуванчик,микрофон,green,black,black,vantimu = пистолет?,1,makevu,аквариум,akete,0,2020-05-13_12h51.47.900,words,2020.1.2,Win32,60,,,,,,,,,,,,,,,,,,,,,,,,,,,,,,,,,,,,,,,,,,,,,,,
,,,,,enkene,коридор,enkene.wav,коридор,удочка,роза,green,black,black,enkene = коридор?,1,eskife,одуванчик,kovaru,0,2020-05-13_12h51.47.900,words,2020.1.2,Win32,60,left,0,0,0,0,1,2.599305,,,,,,,,,,,,,,,,,,,,,,,,,,,,,,,,,,,,,,,,
,,,,,denrete,свисток,denrete.wav,стол,пальма,свисток,black,black,green,denrete = костыль?,0,pafinu,ремень,morvidu,0,2020-05-13_12h51.47.900,words,2020.1.2,Win32,60,right,0,1,1,1,1,2.84494,,,,,,,,,,,,,,,,,,,,,,,,,,,,,,,,,,,,,,,,
,,,,,tinfetu,микрофон,tinfetu.wav,стрела,микрофон,пальма,black,green,black,tinfetu = колбаса?,0,kasfine,мельница,kankeru,0,2020-05-13_12h51.47.900,words,2020.1.2,Win32,60,down,0,2,2,2,1,2.72847,,,,,,,,,,,,,,,,,,,,,,,,,,,,,,,,,,,,,,,,
,,,,,tekuru,хобот,tekuru.wav,точилка,роза,хобот,black,black,green,tekuru = костюм?,0,tuvene,ведро,akufu,0,2020-05-13_12h51.47.900,words,2020.1.2,Win32,60,right,0,3,3,3,1,2.132105,,,,,,,,,,,,,,,,,,,,,,,,,,,,,,,,,,,,,,,,
,,,,,akete,колбаса,akete.wav,качели,хобот,колбаса,black,black,green,akete = мельница?,0,derartu,самолет,nevetu,0,2020-05-13_12h51.47.900,words,2020.1.2,Win32,60,right,0,4,4,4,1,3.453545,,,,,,,,,,,,,,,,,,,,,,,,,,,,,,,,,,,,,,,,
,,,,,avade,флаг,avade.wav,ремень,стрела,флаг,black,black,green,avade = утюг?,0,topeme,терка,reskane,0,2020-05-13_12h51.47.900,words,2020.1.2,Win32,60,right,0,5,5,5,1,1.552375,,,,,,,,,,,,,,,,,,,,,,,,,,,,,,,,,,,,,,,,
,,,,,kavitu,копилка,kavitu.wav,веер,шашлык,копилка,black,black,green,kavitu = шприц?,0,enkene,коридор,eskife,0,2020-05-13_12h51.47.900,words,2020.1.2,Win32,60,right,0,6,6,6,1,2.219155,,,,,,,,,,,,,,,,,,,,,,,,,,,,,,,,,,,,,,,,
,,,,,vantimu,пистолет,vantimu.wav,пистолет,одуванчик,микрофон,green,black,black,vantimu = пистолет?,1,makevu,аквариум,akete,0,2020-05-13_12h51.47.900,words,2020.1.2,Win32,60,left,0,7,7,7,1,2.29551,,,,,,,,,,,,,,,,,,,,,,,,,,,,,,,,,,,,,,,,
,,,,,morvidu,гранат,morvidu.wav,шашлык,гранат,удочка,black,green,black,morvidu = гранат?,1,avade,флаг,topeme,0,2020-05-13_12h51.47.900,words,2020.1.2,Win32,60,down,0,8,8,8,1,0.505435,,,,,,,,,,,,,,,,,,,,,,,,,,,,,,,,,,,,,,,,
,,,,,enkene,коридор,enkene.wav,коридор,удочка,роза,green,black,black,enkene = коридор?,1,eskife,одуванчик,kovaru,0,2020-05-13_12h51.47.900,words,2020.1.2,Win32,60,,,,,,,,"[""e"",""n"",""k"",""e"",""n"",""e"",""return""]","[1.0659049999995887,1.2158000000017637,1.4492350000000442,1.6227450000005774,2.5015649999986636,2.6374700000014855,2.805575000002136]",2.805575,enkene,0,0,0,0,1,,,,,,,,,,,,,,,,,,,,,,,,,,,,,,,
,,,,,denrete,свисток,denrete.wav,стол,пальма,свисток,black,black,green,denrete = костыль?,0,pafinu,ремень,morvidu,0,2020-05-13_12h51.47.900,words,2020.1.2,Win32,60,,,,,,,,"[""d"",""e"",""n"",""r"",""e"",""t"",""e"",""return""]","[1.1678150000008145,1.6557600000015782,1.9757549999995945,2.343860000000973,2.4716799999987416,2.7762599999987287,2.8398249999991094,3.1037250000009635]",3.103725,denrete,0,1,1,1,1,,,,,,,,,,,,,,,,,,,,,,,,,,,,,,,
,,,,,tinfetu,микрофон,tinfetu.wav,стрела,микрофон,пальма,black,green,black,tinfetu = колбаса?,0,kasfine,мельница,kankeru,0,2020-05-13_12h51.47.900,words,2020.1.2,Win32,60,,,,,,,,"[""t"",""i"",""n"",""f"",""e"",""r"",""u"",""return""]","[1.6668849999987287,2.0428500000016356,2.6268349999991187,3.210800000000745,3.4107650000006515,3.642759999998816,4.106779999998253,4.323325000001205]",4.323325,tinferu,0,2,2,2,1,,,,,,,,,,,,,,,,,,,,,,,,,,,,,,,
,,,,,tekuru,хобот,tekuru.wav,точилка,роза,хобот,black,black,green,tekuru = костюм?,0,tuvene,ведро,akufu,0,2020-05-13_12h51.47.900,words,2020.1.2,Win32,60,,,,,,,,"[""t"",""e"",""k"",""u"",""r"",""i"",""return""]","[1.5821549999999434,2.0645450000010896,3.1900950000016337,3.422084999998333,3.6540449999992006,3.9740500000006023,4.093990000001099]",4.09399,tekuri,0,3,3,3,1,,,,,,,,,,,,,,,,,,,,,,,,,,,,,,,
,,,,,akete,колбаса,akete.wav,качели,хобот,колбаса,black,black,green,akete = мельница?,0,derartu,самолет,nevetu,0,2020-05-13_12h51.47.900,words,2020.1.2,Win32,60,,,,,,,,"[""a"",""k"",""e"",""r"",""e"",""return""]","[1.4337400000002845,1.730344999999943,2.32099499999822,4.288994999998977,4.3369649999985995,4.449034999997821]",4.449035,akere,0,4,4,4,1,,,,,,,,,,,,,,,,,,,,,,,,,,,,,,,
,,,,,avade,флаг,avade.wav,ремень,стрела,флаг,black,black,green,avade = утюг?,0,topeme,терка,reskane,0,2020-05-13_12h51.47.900,words,2020.1.2,Win32,60,,,,,,,,"[""a"",""v"",""a"",""d"",""e"",""return""]","[1.2198300000018207,1.6518200000027718,1.9718749999992724,2.4037500000013097,2.4917500000010477,2.965230000001611]",2.96523,avade,0,5,5,5,1,,,,,,,,,,,,,,,,,,,,,,,,,,,,,,,
,,,,,kavitu,копилка,kavitu.wav,веер,шашлык,копилка,black,black,green,kavitu = шприц?,0,enkene,коридор,eskife,0,2020-05-13_12h51.47.900,words,2020.1.2,Win32,60,,,,,,,,"[""k"",""a"",""v"",""i"",""t"",""u"",""return""]","[1.1023749999984602,1.4151750000019092,1.8486750000010943,2.031825000001845,2.2485750000015514,2.4942950000004203,2.774359999999433]",2.77436,kavitu,0,6,6,6,1,,,,,,,,,,,,,,,,,,,,,,,,,,,,,,,
,,,,,vantimu,пистолет,vantimu.wav,пистолет,одуванчик,микрофон,green,black,black,vantimu = пистолет?,1,makevu,аквариум,akete,0,2020-05-13_12h51.47.900,words,2020.1.2,Win32,60,,,,,,,,"[""v"",""a"",""n"",""t"",""i"",""m"",""e"",""return""]","[1.0182349999994358,1.4987149999977873,1.8896700000004785,2.417604999998616,2.737590000000637,2.9855999999999767,3.12154499999815,3.2496399999980667]",3.24964,vantime,0,7,7,7,1,,,,,,,,,,,,,,,,,,,,,,,,,,,,,,,
,,,,,morvidu,гранат,morvidu.wav,шашлык,гранат,удочка,black,green,black,morvidu = гранат?,1,avade,флаг,topeme,0,2020-05-13_12h51.47.900,words,2020.1.2,Win32,60,,,,,,,,"[""m"",""o"",""r"",""v"",""i"",""d"",""u"",""return""]","[0.02013000000079046,0.33207000000038533,0.7241199999989476,1.1560600000011618,1.364460000000804,1.5642850000003818,1.7159849999989092,2.852790000000823]",2.85279,morvidu,0,8,8,8,1,,,,,,,,,,,,,,,,,,,,,,,,,,,,,,,
,,,,,,,,,,,,,,,,,,,0,2020-05-13_12h51.47.900,words,2020.1.2,Win32,60,,,,,,,,,,,,,,,,,0,2,2,2,1,21:30,,,,,,,,,,,,,,,,,,,,,,,,,
0,0,0,0,1,koderde,клубок,koderde.wav,компас,клубок,ведро,black,green,black,koderde = флаг?,0,denrete,свисток,pafinu,0,2020-05-13_12h51.47.900,words,2020.1.2,Win32,60,,,,,,,,,,,,,,,,,,,,,,,,,,,,,,,,,,,,,,,,,,,,,,,
0,1,1,1,1,rantare,наперсток,rantare.wav,наперсток,маяк,коридор,green,black,black,rantare = наперсток?,1,koderde,клубок,denrete,0,2020-05-13_12h51.47.900,words,2020.1.2,Win32,60,,,,,,,,,,,,,,,,,,,,,,,,,,,,,,,,,,,,,,,,,,,,,,,
0,2,2,2,1,befadu,мяч,befadu.wav,гранат,терка,мяч,black,black,green,befadu = хобот?,0,kavenu,пальма,limate,0,2020-05-13_12h51.47.900,words,2020.1.2,Win32,60,,,,,,,,,,,,,,,,,,,,,,,,,,,,,,,,,,,,,,,,,,,,,,,
0,3,3,3,1,tuvene,ведро,tuvene.wav,ведро,костыль,костюм,green,black,black,tuvene = ведро?,1,akufu,гвоздь,asamu,0,2020-05-13_12h51.47.900,words,2020.1.2,Win32,60,,,,,,,,,,,,,,,,,,,,,,,,,,,,,,,,,,,,,,,,,,,,,,,
0,4,4,4,1,kasfine,мельница,kasfine.wav,ремень,аквариум,мельница,black,black,green,kasfine = качели?,0,kankeru,компас,ediste,0,2020-05-13_12h51.47.900,words,2020.1.2,Win32,60,,,,,,,,,,,,,,,,,,,,,,,,,,,,,,,,,,,,,,,,,,,,,,,
0,5,5,5,1,reskane,стрела,reskane.wav,колбаса,костюм,стрела,black,black,green,reskane = стрела?,1,rantare,наперсток,koderde,0,2020-05-13_12h51.47.900,words,2020.1.2,Win32,60,,,,,,,,,,,,,,,,,,,,,,,,,,,,,,,,,,,,,,,,,,,,,,,
0,6,6,6,1,akufu,гвоздь,akufu.wav,гвоздь,самолет,клубок,green,black,black,akufu = пальма?,0,asamu,шприц,vortule,0,2020-05-13_12h51.47.900,words,2020.1.2,Win32,60,,,,,,,,,,,,,,,,,,,,,,,,,,,,,,,,,,,,,,,,,,,,,,,
0,7,7,7,1,makevu,аквариум,makevu.wav,аквариум,конверт,свисток,green,black,black,makevu = аквариум?,1,akete,колбаса,derartu,0,2020-05-13_12h51.47.900,words,2020.1.2,Win32,60,,,,,,,,,,,,,,,,,,,,,,,,,,,,,,,,,,,,,,,,,,,,,,,
,,,,,koderde,клубок,koderde.wav,компас,клубок,ведро,black,green,black,koderde = флаг?,0,denrete,свисток,pafinu,0,2020-05-13_12h51.47.900,words,2020.1.2,Win32,60,down,0,0,0,0,1,3.343435,,,,,,,,,,,,,,,,,,,,,,,,,,,,,,,,,,,,,,,,
,,,,,rantare,наперсток,rantare.wav,наперсток,маяк,коридор,green,black,black,rantare = наперсток?,1,koderde,клубок,denrete,0,2020-05-13_12h51.47.900,words,2020.1.2,Win32,60,left,0,1,1,1,1,2.61388,,,,,,,,,,,,,,,,,,,,,,,,,,,,,,,,,,,,,,,,
,,,,,befadu,мяч,befadu.wav,гранат,терка,мяч,black,black,green,befadu = хобот?,0,kavenu,пальма,limate,0,2020-05-13_12h51.47.900,words,2020.1.2,Win32,60,right,0,2,2,2,1,2.17742,,,,,,,,,,,,,,,,,,,,,,,,,,,,,,,,,,,,,,,,
,,,,,tuvene,ведро,tuvene.wav,ведро,костыль,костюм,green,black,black,tuvene = ведро?,1,akufu,гвоздь,asamu,0,2020-05-13_12h51.47.900,words,2020.1.2,Win32,60,left,0,3,3,3,1,1.494045,,,,,,,,,,,,,,,,,,,,,,,,,,,,,,,,,,,,,,,,
,,,,,kasfine,мельница,kasfine.wav,ремень,аквариум,мельница,black,black,green,kasfine = качели?,0,kankeru,компас,ediste,0,2020-05-13_12h51.47.900,words,2020.1.2,Win32,60,,0,4,4,4,1,,,,,,,,,,,,,,,,,,,,,,,,,,,,,,,,,,,,,,,,,
,,,,,reskane,стрела,reskane.wav,колбаса,костюм,стрела,black,black,green,reskane = стрела?,1,rantare,наперсток,koderde,0,2020-05-13_12h51.47.900,words,2020.1.2,Win32,60,right,0,5,5,5,1,2.375385,,,,,,,,,,,,,,,,,,,,,,,,,,,,,,,,,,,,,,,,
,,,,,akufu,гвоздь,akufu.wav,гвоздь,самолет,клубок,green,black,black,akufu = пальма?,0,asamu,шприц,vortule,0,2020-05-13_12h51.47.900,words,2020.1.2,Win32,60,left,0,6,6,6,1,2.385905,,,,,,,,,,,,,,,,,,,,,,,,,,,,,,,,,,,,,,,,
,,,,,makevu,аквариум,makevu.wav,аквариум,конверт,свисток,green,black,black,makevu = аквариум?,1,akete,колбаса,derartu,0,2020-05-13_12h51.47.900,words,2020.1.2,Win32,60,left,0,7,7,7,1,2.788085,,,,,,,,,,,,,,,,,,,,,,,,,,,,,,,,,,,,,,,,
,,,,,mubale,намордник,mubale.wav,намордник,мельница,домино,green,black,black,mubale = намордник?,1,kavitu,копилка,enkene,0,2020-05-13_12h51.47.900,words,2020.1.2,Win32,60,left,0,8,8,8,1,3.08874,,,,,,,,,,,,,,,,,,,,,,,,,,,,,,,,,,,,,,,,
,,,,,koderde,клубок,koderde.wav,компас,клубок,ведро,black,green,black,koderde = флаг?,0,denrete,свисток,pafinu,0,2020-05-13_12h51.47.900,words,2020.1.2,Win32,60,,,,,,,,"[""k"",""o"",""v"",""e"",""r"",""d"",""e"",""return""]","[1.2361449999989418,1.3235749999985273,1.6195450000013807,1.6915100000005623,1.9715949999989562,2.243539999999598,2.3475199999992356,3.2035199999990027]",3.20352,koverde,0,0,0,0,1,,,,,,,,,,,,,,,,,,,,,,,,,,,,,,,
,,,,,rantare,наперсток,rantare.wav,наперсток,маяк,коридор,green,black,black,rantare = наперсток?,1,koderde,клубок,denrete,0,2020-05-13_12h51.47.900,words,2020.1.2,Win32,60,,,,,,,,"[""r"",""a"",""n"",""t"",""a"",""r"",""e"",""return""]","[0.9028800000013462,1.214864999998099,1.5748149999999441,2.0387449999980163,2.0868200000004435,3.5833049999999957,3.8817549999985204,4.2867499999993015]",4.28675,rantare,0,1,1,1,1,,,,,,,,,,,,,,,,,,,,,,,,,,,,,,,
,,,,,befadu,мяч,befadu.wav,гранат,терка,мяч,black,black,green,befadu = хобот?,0,kavenu,пальма,limate,0,2020-05-13_12h51.47.900,words,2020.1.2,Win32,60,,,,,,,,"[""d"",""e"",""f"",""a"",""d"",""u"",""return""]","[0.6654200000012906,1.1472600000015518,1.5921999999991385,1.8972199999989243,2.1137699999999313,2.568139999999289,3.584159999998519]",3.58416,defadu,0,2,2,2,1,,,,,,,,,,,,,,,,,,,,,,,,,,,,,,,
,,,,,tuvene,ведро,tuvene.wav,ведро,костыль,костюм,green,black,black,tuvene = ведро?,1,akufu,гвоздь,asamu,0,2020-05-13_12h51.47.900,words,2020.1.2,Win32,60,,,,,,,,"[""k"",""a"",""s"",""f"",""i"",""n"",""e"",""return""]","[2.01535000000149,2.398744999998371,2.9561399999982996,3.4319499999983236,3.700075000000652,4.198629999998957,4.484045000000947,4.620034999999916]",4.620035,kasfine,0,3,3,3,1,,,,,,,,,,,,,,,,,,,,,,,,,,,,,,,
,,,,,kasfine,мельница,kasfine.wav,ремень,аквариум,мельница,black,black,green,kasfine = качели?,0,kankeru,компас,ediste,0,2020-05-13_12h51.47.900,words,2020.1.2,Win32,60,,,,,,,,"[""k"",""a"",""s"",""f"",""i"",""n"",""e"",""return""]","[0.5419000000002825,0.9898549999999204,1.4146049999981187,1.8145850000003065,1.9658100000016248,2.205930000000194,2.349744999999757,2.5257950000014944]",2.525795,kasfine,0,4,4,4,1,,,,,,,,,,,,,,,,,,,,,,,,,,,,,,,
,,,,,reskane,стрела,reskane.wav,колбаса,костюм,стрела,black,black,green,reskane = стрела?,1,rantare,наперсток,koderde,0,2020-05-13_12h51.47.900,words,2020.1.2,Win32,60,,,,,,,,"[""r"",""e"",""s"",""k"",""a"",""n"",""e"",""return""]","[1.5222649999994928,1.8016899999965972,2.148620000000051,2.4819849999986445,2.649604999998701,2.89842499999952,3.0818299999991723,3.315149999998539]",3.31515,reskane,0,5,5,5,1,,,,,,,,,,,,,,,,,,,,,,,,,,,,,,,
,,,,,akufu,гвоздь,akufu.wav,гвоздь,самолет,клубок,green,black,black,akufu = пальма?,0,asamu,шприц,vortule,0,2020-05-13_12h51.47.900,words,2020.1.2,Win32,60,,,,,,,,"[""a"",""k"",""u"",""f"",""u"",""return""]","[1.0922050000008312,1.3561650000011696,2.7881750000015018,3.092725000002247,3.348635000002105,3.7881400000004533]",3.78814,akufu,0,6,6,6,1,,,,,,,,,,,,,,,,,,,,,,,,,,,,,,,
,,,,,makevu,аквариум,makevu.wav,аквариум,конверт,свисток,green,black,black,makevu = аквариум?,1,akete,колбаса,derartu,0,2020-05-13_12h51.47.900,words,2020.1.2,Win32,60,,,,,,,,"[""m"",""a"",""k"",""e"",""v"",""u"",""return""]","[0.8709649999982503,1.2153399999988324,2.070944999999483,3.050424999997631,3.5429149999981746,3.7269400000005817,4.050674999998478]",4.050675,makevu,0,7,7,7,1,,,,,,,,,,,,,,,,,,,,,,,,,,,,,,,
,,,,,mubale,намордник,mubale.wav,намордник,мельница,домино,green,black,black,mubale = намордник?,1,kavitu,копилка,enkene,0,2020-05-13_12h51.47.900,words,2020.1.2,Win32,60,,,,,,,,"[""m"",""u"",""b"",""a"",""l"",""e"",""return""]","[0.4328249999999798,0.7921599999972386,1.3472799999981362,1.8079999999972642,2.047984999997425,2.2319549999994024,2.746804999998858]",2.746805,mubale,0,8,8,8,1,,,,,,,,,,,,,,,,,,,,,,,,,,,,,,,
,,,,,derartu,самолет,derartu.wav,наперсток,самолет,конверт,black,green,black,derartu = свисток?,0,nevetu,шашлык,vantimu,0,2020-05-13_12h51.47.900,words,2020.1.2,Win32,60,,,,,,,,,,,,,,,,,,,,,,,return,20.58428,,0,0,0,0,1,,,,,,,,,,,,,,,,,
,,,,,asamu,шприц,asamu.wav,одуванчик,флаг,шприц,black,black,green,asamu = клубок?,0,vortule,роза,mubale,0,2020-05-13_12h51.47.900,words,2020.1.2,Win32,60,,,,,,,,,,,,,,,,,,,,,,,,,right,0,1,1,1,1,1.69848,,,,,,,,,,,,,,,,
,,,,,farimu,конверт,farimu.wav,мяч,конверт,компас,black,green,black,farimu = конверт?,1,ekiste,качели,bokente,0,2020-05-13_12h51.47.900,words,2020.1.2,Win32,60,,,,,,,,,,,,,,,,,,,,,,,,,left,0,2,2,2,1,1.320825,,,,,,,,,,,,,,,,
,,,,,vortule,роза,vortule.wav,роза,мельница,коридор,green,black,black,vortule = роза?,1,mubale,намордник,kavitu,0,2020-05-13_12h51.47.900,words,2020.1.2,Win32,60,,,,,,,,,,,,,,,,,,,,,,,,,left,0,3,3,3,1,0.918975,,,,,,,,,,,,,,,,
,,,,,topeme,терка,topeme.wav,качели,домино,терка,black,black,green,topeme = терка?,1,reskane,стрела,rantare,0,2020-05-13_12h51.47.900,words,2020.1.2,Win32,60,,,,,,,,,,,,,,,,,,,,,,,,,left,0,4,4,4,1,1.900005,,,,,,,,,,,,,,,,
,,,,,kavenu,пальма,kavenu.wav,шприц,свисток,пальма,black,black,green,kavenu = домино?,0,limate,удочка,tekuru,0,2020-05-13_12h51.47.900,words,2020.1.2,Win32,60,,,,,,,,,,,,,,,,,,,,,,,,,left,0,5,5,5,1,1.85991,,,,,,,,,,,,,,,,
,,,,,farantu,точилка,farantu.wav,свисток,точилка,шашлык,black,green,black,farantu = точилка?,1,sankadu,домино,befadu,0,2020-05-13_12h51.47.900,words,2020.1.2,Win32,60,,,,,,,,,,,,,,,,,,,,,,,,,left,0,6,6,6,1,1.817355,,,,,,,,,,,,,,,,
,,,,,pafinu,ремень,pafinu.wav,ремень,маяк,шашлык,green,black,black,pafinu = ремень?,1,morvidu,гранат,avade,0,2020-05-13_12h51.47.900,words,2020.1.2,Win32,60,,,,,,,,,,,,,,,,,,,,,,,,,left,0,7,7,7,1,1.79997,,,,,,,,,,,,,,,,
,,,,,nevetu,шашлык,nevetu.wav,шашлык,копилка,стрела,green,black,black,nevetu = шашлык?,1,vantimu,пистолет,makevu,0,2020-05-13_12h51.47.900,words,2020.1.2,Win32,60,,,,,,,,,,,,,,,,,,,,,,,,,left,0,8,8,8,1,1.336325,,,,,,,,,,,,,,,,
,,,,,potabu,маяк,potabu.wav,маяк,клубок,наперсток,green,black,black,potabu = маяк?,1,kambipu,колокол,derene,0,2020-05-13_12h51.47.900,words,2020.1.2,Win32,60,,,,,,,,,,,,,,,,,,,,,,,,,left,0,9,9,9,1,1.686225,,,,,,,,,,,,,,,,
,,,,,felkure,веер,felkure.wav,шприц,веер,костюм,black,green,black,felkure = веер?,1,apokte,костюм,farimu,0,2020-05-13_12h51.47.900,words,2020.1.2,Win32,60,,,,,,,,,,,,,,,,,,,,,,,,,right,0,10,10,10,1,2.12602,,,,,,,,,,,,,,,,
,,,,,bokente,костыль,bokente.wav,костыль,пальма,кроссворд,green,black,black,bokente = микрофон?,0,farantu,точилка,sankadu,0,2020-05-13_12h51.47.900,words,2020.1.2,Win32,60,,,,,,,,,,,,,,,,,,,,,,,,,right,0,11,11,11,1,2.122565,,,,,,,,,,,,,,,,
,,,,,eskife,одуванчик,eskife.wav,компас,гвоздь,одуванчик,black,black,green,eskife = одуванчик?,1,kovaru,утюг,tinfetu,0,2020-05-13_12h51.47.900,words,2020.1.2,Win32,60,,,,,,,,,,,,,,,,,,,,,,,,,left,0,12,12,12,1,2.33658,,,,,,,,,,,,,,,,
,,,,,kovaru,утюг,kovaru.wav,аквариум,утюг,стрела,black,green,black,kovaru = мяч?,0,tinfetu,микрофон,kasfine,0,2020-05-13_12h51.47.900,words,2020.1.2,Win32,60,,,,,,,,,,,,,,,,,,,,,,,,,left,0,13,13,13,1,1.94232,,,,,,,,,,,,,,,,
,,,,,sankadu,домино,sankadu.wav,стрела,домино,колокол,black,green,black,sankadu = гвоздь?,0,befadu,мяч,kavenu,0,2020-05-13_12h51.47.900,words,2020.1.2,Win32,60,,,,,,,,,,,,,,,,,,,,,,,,,right,0,14,14,14,1,2.556355,,,,,,,,,,,,,,,,
,,,,,ekiste,качели,ekiste.wav,качели,самолет,пистолет,green,black,black,ekiste = кроссворд?,0,bokente,костыль,farantu,0,2020-05-13_12h51.47.900,words,2020.1.2,Win32,60,,,,,,,,,,,,,,,,,,,,,,,,,left,0,15,15,15,1,1.886575,,,,,,,,,,,,,,,,
,,,,,apokte,костюм,apokte.wav,маяк,гранат,костюм,black,black,green,apokte = копилка?,0,farimu,конверт,ekiste,0,2020-05-13_12h51.47.900,words,2020.1.2,Win32,60,,,,,,,,,,,,,,,,,,,,,,,,,left,0,16,16,16,1,2.152065,,,,,,,,,,,,,,,,
,,,,,derene,стол,derene.wav,намордник,компас,стол,black,black,green,derene = самолет?,0,potabu,маяк,kambipu,0,2020-05-13_12h51.47.900,words,2020.1.2,Win32,60,,,,,,,,,,,,,,,,,,,,,,,,,right,0,17,17,17,1,2.5082,,,,,,,,,,,,,,,,
,,,,,ediste,кроссворд,ediste.wav,гвоздь,мельница,кроссворд,black,black,green,ediste = стол?,0,felkure,веер,apokte,0,2020-05-13_12h51.47.900,words,2020.1.2,Win32,60,,,,,,,,,,,,,,,,,,,,,,,,,left,0,18,18,18,1,2.115825,,,,,,,,,,,,,,,,
,,,,,kankeru,компас,kankeru.wav,компас,клубок,костыль,green,black,black,kankeru = компас?,1,ediste,кроссворд,felkure,0,2020-05-13_12h51.47.900,words,2020.1.2,Win32,60,,,,,,,,,,,,,,,,,,,,,,,,,right,0,19,19,19,1,2.13154,,,,,,,,,,,,,,,,
,,,,,limate,удочка,limate.wav,удочка,мяч,утюг,green,black,black,limate = удочка?,1,tekuru,хобот,tuvene,0,2020-05-13_12h51.47.900,words,2020.1.2,Win32,60,,,,,,,,,,,,,,,,,,,,,,,,,right,0,20,20,20,1,2.60534,,,,,,,,,,,,,,,,
,,,,,enkene,коридор,enkene.wav,коридор,удочка,роза,green,black,black,enkene = коридор?,1,eskife,одуванчик,kovaru,0,2020-05-13_12h51.47.900,words,2020.1.2,Win32,60,,,,,,,,,,,,,,,,,,,,,,,,,right,0,21,21,21,1,2.65725,,,,,,,,,,,,,,,,
,,,,,denrete,свисток,denrete.wav,стол,пальма,свисток,black,black,green,denrete = костыль?,0,pafinu,ремень,morvidu,0,2020-05-13_12h51.47.900,words,2020.1.2,Win32,60,,,,,,,,,,,,,,,,,,,,,,,,,left,0,22,22,22,1,2.6897,,,,,,,,,,,,,,,,
,,,,,tinfetu,микрофон,tinfetu.wav,стрела,микрофон,пальма,black,green,black,tinfetu = колбаса?,0,kasfine,мельница,kankeru,0,2020-05-13_12h51.47.900,words,2020.1.2,Win32,60,,,,,,,,,,,,,,,,,,,,,,,,,right,0,23,23,23,1,2.024965,,,,,,,,,,,,,,,,
,,,,,tekuru,хобот,tekuru.wav,точилка,роза,хобот,black,black,green,tekuru = костюм?,0,tuvene,ведро,akufu,0,2020-05-13_12h51.47.900,words,2020.1.2,Win32,60,,,,,,,,,,,,,,,,,,,,,,,,,left,0,24,24,24,1,3.338745,,,,,,,,,,,,,,,,
,,,,,akete,колбаса,akete.wav,качели,хобот,колбаса,black,black,green,akete = мельница?,0,derartu,самолет,nevetu,0,2020-05-13_12h51.47.900,words,2020.1.2,Win32,60,,,,,,,,,,,,,,,,,,,,,,,,,right,0,25,25,25,1,2.552085,,,,,,,,,,,,,,,,
,,,,,avade,флаг,avade.wav,ремень,стрела,флаг,black,black,green,avade = утюг?,0,topeme,терка,reskane,0,2020-05-13_12h51.47.900,words,2020.1.2,Win32,60,,,,,,,,,,,,,,,,,,,,,,,,,left,0,26,26,26,1,2.59816,,,,,,,,,,,,,,,,
,,,,,kavitu,копилка,kavitu.wav,веер,шашлык,копилка,black,black,green,kavitu = шприц?,0,enkene,коридор,eskife,0,2020-05-13_12h51.47.900,words,2020.1.2,Win32,60,,,,,,,,,,,,,,,,,,,,,,,,,right,0,27,27,27,1,2.590675,,,,,,,,,,,,,,,,
,,,,,vantimu,пистолет,vantimu.wav,пистолет,одуванчик,микрофон,green,black,black,vantimu = пистолет?,1,makevu,аквариум,akete,0,2020-05-13_12h51.47.900,words,2020.1.2,Win32,60,,,,,,,,,,,,,,,,,,,,,,,,,left,0,28,28,28,1,2.681095,,,,,,,,,,,,,,,,
,,,,,morvidu,гранат,morvidu.wav,шашлык,гранат,удочка,black,green,black,morvidu = гранат?,1,avade,флаг,topeme,0,2020-05-13_12h51.47.900,words,2020.1.2,Win32,60,,,,,,,,,,,,,,,,,,,,,,,,,left,0,29,29,29,1,3.0338,,,,,,,,,,,,,,,,
,,,,,kambipu,колокол,kambipu.wav,колокол,веер,микрофон,green,black,black,kambipu = колокол?,1,derene,стол,potabu,0,2020-05-13_12h51.47.900,words,2020.1.2,Win32,60,,,,,,,,,,,,,,,,,,,,,,,,,right,0,30,30,30,1,2.643065,,,,,,,,,,,,,,,,
,,,,,koderde,клубок,koderde.wav,компас,клубок,ведро,black,green,black,koderde = флаг?,0,denrete,свисток,pafinu,0,2020-05-13_12h51.47.900,words,2020.1.2,Win32,60,,,,,,,,,,,,,,,,,,,,,,,,,left,0,31,31,31,1,2.380725,,,,,,,,,,,,,,,,
,,,,,rantare,наперсток,rantare.wav,наперсток,маяк,коридор,green,black,black,rantare = наперсток?,1,koderde,клубок,denrete,0,2020-05-13_12h51.47.900,words,2020.1.2,Win32,60,,,,,,,,,,,,,,,,,,,,,,,,,left,0,32,32,32,1,3.423385,,,,,,,,,,,,,,,,
,,,,,befadu,мяч,befadu.wav,гранат,терка,мяч,black,black,green,befadu = хобот?,0,kavenu,пальма,limate,0,2020-05-13_12h51.47.900,words,2020.1.2,Win32,60,,,,,,,,,,,,,,,,,,,,,,,,,,0,33,33,33,1,,,,,,,,,,,,,,,,,
,,,,,tuvene,ведро,tuvene.wav,ведро,костыль,костюм,green,black,black,tuvene = ведро?,1,akufu,гвоздь,asamu,0,2020-05-13_12h51.47.900,words,2020.1.2,Win32,60,,,,,,,,,,,,,,,,,,,,,,,,,right,0,34,34,34,1,2.48136,,,,,,,,,,,,,,,,
,,,,,kasfine,мельница,kasfine.wav,ремень,аквариум,мельница,black,black,green,kasfine = качели?,0,kankeru,компас,ediste,0,2020-05-13_12h51.47.900,words,2020.1.2,Win32,60,,,,,,,,,,,,,,,,,,,,,,,,,right,0,35,35,35,1,2.914695,,,,,,,,,,,,,,,,
,,,,,reskane,стрела,reskane.wav,колбаса,костюм,стрела,black,black,green,reskane = стрела?,1,rantare,наперсток,koderde,0,2020-05-13_12h51.47.900,words,2020.1.2,Win32,60,,,,,,,,,,,,,,,,,,,,,,,,,left,0,36,36,36,1,2.623205,,,,,,,,,,,,,,,,
,,,,,akufu,гвоздь,akufu.wav,гвоздь,самолет,клубок,green,black,black,akufu = пальма?,0,asamu,шприц,vortule,0,2020-05-13_12h51.47.900,words,2020.1.2,Win32,60,,,,,,,,,,,,,,,,,,,,,,,,,left,0,37,37,37,1,2.73173,,,,,,,,,,,,,,,,
,,,,,makevu,аквариум,makevu.wav,аквариум,конверт,свисток,green,black,black,makevu = аквариум?,1,akete,колбаса,derartu,0,2020-05-13_12h51.47.900,words,2020.1.2,Win32,60,,,,,,,,,,,,,,,,,,,,,,,,,left,0,38,38,38,1,2.75003,,,,,,,,,,,,,,,,
,,,,,mubale,намордник,mubale.wav,намордник,мельница,домино,green,black,black,mubale = намордник?,1,kavitu,копилка,enkene,0,2020-05-13_12h51.47.900,words,2020.1.2,Win32,60,,,,,,,,,,,,,,,,,,,,,,,,,left,0,39,39,39,1,1.8654,,,,,,,,,,,,,,,,
,,,,,derartu,самолет,derartu.wav,наперсток,самолет,конверт,black,green,black,derartu = свисток?,0,nevetu,шашлык,vantimu,0,2020-05-13_12h51.47.900,words,2020.1.2,Win32,60,,,,,,,,,,,,,,,,,,,,,,,,,,,,,,,,7,,,0,0,0,0,1,,,,,,,,
,,,,,asamu,шприц,asamu.wav,одуванчик,флаг,шприц,black,black,green,asamu = клубок?,0,vortule,роза,mubale,0,2020-05-13_12h51.47.900,words,2020.1.2,Win32,60,,,,,,,,,,,,,,,,,,,,,,,,,,,,,,,,3.837775,vortule,"[""v"",""o"",""r"",""t"",""u"",""l"",""e"",""return""]",0,1,1,1,1,"[2.0865349999985483,2.2649349999990136,2.717805000000226,2.9818850000012844,3.165749999999889,3.4857650000012654,3.6642199999987497,3.837774999999965]",,,,,,,
,,,,,farimu,конверт,farimu.wav,мяч,конверт,компас,black,green,black,farimu = конверт?,1,ekiste,качели,bokente,0,2020-05-13_12h51.47.900,words,2020.1.2,Win32,60,,,,,,,,,,,,,,,,,,,,,,,,,,,,,,,,3.39053,,"[""return""]",0,2,2,2,1,[3.390530000000581],,,,,,,
,,,,,vortule,роза,vortule.wav,роза,мельница,коридор,green,black,black,vortule = роза?,1,mubale,намордник,kavitu,0,2020-05-13_12h51.47.900,words,2020.1.2,Win32,60,,,,,,,,,,,,,,,,,,,,,,,,,,,,,,,,4.472295,mubale,"[""m"",""u"",""b"",""a"",""l"",""e"",""return""]",0,3,3,3,1,"[2.81646499999988,3.3444650000019465,4.024985000000015,4.0967450000025565,4.2400999999990745,4.35225999999966,4.472294999999576]",,,,,,,
,,,,,topeme,терка,topeme.wav,качели,домино,терка,black,black,green,topeme = терка?,1,reskane,стрела,rantare,0,2020-05-13_12h51.47.900,words,2020.1.2,Win32,60,,,,,,,,,,,,,,,,,,,,,,,,,,,,,,,,6.40846,reskane,"[""r"",""e"",""s"",""k"",""a"",""n"",""e"",""return""]",0,4,4,4,1,"[5.224699999999075,5.288570000000618,5.536564999998518,5.80058999999892,5.897229999998672,6.208520000000135,6.315899999997782,6.40845999999874]",,,,,,,
,,,,,kavenu,пальма,kavenu.wav,шприц,свисток,пальма,black,black,green,kavenu = домино?,0,limate,удочка,tekuru,0,2020-05-13_12h51.47.900,words,2020.1.2,Win32,60,,,,,,,,,,,,,,,,,,,,,,,,,,,,,,,,7,,,0,5,5,5,1,,,,,,,,
,,,,,farantu,точилка,farantu.wav,свисток,точилка,шашлык,black,green,black,farantu = точилка?,1,sankadu,домино,befadu,0,2020-05-13_12h51.47.900,words,2020.1.2,Win32,60,,,,,,,,,,,,,,,,,,,,,,,,,,,,,,,,5.63018,sankime,"[""s"",""a"",""n"",""k"",""i"",""m"",""e"",""return""]",0,6,6,6,1,"[3.3102450000005774,3.5336700000007113,3.7897400000001653,4.7576200000003155,5.213695000001962,5.437745000002906,5.525505000001431,5.630180000000109]",,,,,,,
,,,,,pafinu,ремень,pafinu.wav,ремень,маяк,шашлык,green,black,black,pafinu = ремень?,1,morvidu,гранат,avade,0,2020-05-13_12h51.47.900,words,2020.1.2,Win32,60,,,,,,,,,,,,,,,,,,,,,,,,,,,,,,,,5.68669,morvidu,"[""m"",""o"",""r"",""v"",""i"",""d"",""u"",""return""]",0,7,7,7,1,"[3.0387399999999616,3.447070000001986,3.838740000002872,4.310670000002574,4.718655000000581,5.13466000000335,5.374635000000126,5.686690000002272]",,,,,,,
,,,,,nevetu,шашлык,nevetu.wav,шашлык,копилка,стрела,green,black,black,nevetu = шашлык?,1,vantimu,пистолет,makevu,0,2020-05-13_12h51.47.900,words,2020.1.2,Win32,60,,,,,,,,,,,,,,,,,,,,,,,,,,,,,,,,4.997565,vantimu,"[""v"",""a"",""n"",""t"",""i"",""m"",""e"",""backspace"",""u"",""return""]",0,8,8,8,1,"[2.4643549999998413,2.5494950000027075,2.853490000001102,3.1815750000021126,3.373545000001968,3.7094350000004397,3.837390000000596,4.231080000001157,4.630834999999706,4.997565000001259]",,,,,,,
,,,,,potabu,маяк,potabu.wav,маяк,клубок,наперсток,green,black,black,potabu = маяк?,1,kambipu,колокол,derene,0,2020-05-13_12h51.47.900,words,2020.1.2,Win32,60,,,,,,,,,,,,,,,,,,,,,,,,,,,,,,,,7,,"[""e""]",0,9,9,9,1,[6.944015000000718],,,,,,,
,,,,,felkure,веер,felkure.wav,шприц,веер,костюм,black,green,black,felkure = веер?,1,apokte,костюм,farimu,0,2020-05-13_12h51.47.900,words,2020.1.2,Win32,60,,,,,,,,,,,,,,,,,,,,,,,,,,,,,,,,5.554545,bokuve,"[""b"",""o"",""k"",""u"",""v"",""e"",""return""]",0,10,10,10,1,"[2.9386649999978545,3.1470549999976356,4.547039999997651,4.8826200000003155,5.250625000000582,5.41329499999847,5.554544999999052]",,,,,,,
,,,,,bokente,костыль,bokente.wav,костыль,пальма,кроссворд,green,black,black,bokente = микрофон?,0,farantu,точилка,sankadu,0,2020-05-13_12h51.47.900,words,2020.1.2,Win32,60,,,,,,,,,,,,,,,,,,,,,,,,,,,,,,,,4.048425,enkere,"[""e"",""n"",""k"",""e"",""r"",""e"",""return""]",0,11,11,11,1,"[2.670920000000706,3.28096500000197,3.5194699999992736,3.6548699999989367,3.8868499999991855,3.9588699999987966,4.048425000001089]",,,,,,,
,,,,,eskife,одуванчик,eskife.wav,компас,гвоздь,одуванчик,black,black,green,eskife = одуванчик?,1,kovaru,утюг,tinfetu,0,2020-05-13_12h51.47.900,words,2020.1.2,Win32,60,,,,,,,,,,,,,,,,,,,,,,,,,,,,,,,,5.02272,kovitu,"[""k"",""o"",""v"",""i"",""t"",""u"",""return""]",0,12,12,12,1,"[3.080500000000029,3.1907050000008894,3.5827250000002095,3.7186650000003283,4.08038999999917,4.958709999998973,5.022720000000845]",,,,,,,
,,,,,kovaru,утюг,kovaru.wav,аквариум,утюг,стрела,black,green,black,kovaru = мяч?,0,tinfetu,микрофон,kasfine,0,2020-05-13_12h51.47.900,words,2020.1.2,Win32,60,,,,,,,,,,,,,,,,,,,,,,,,,,,,,,,,7,,,0,13,13,13,1,,,,,,,,
,,,,,sankadu,домино,sankadu.wav,стрела,домино,колокол,black,green,black,sankadu = гвоздь?,0,befadu,мяч,kavenu,0,2020-05-13_12h51.47.900,words,2020.1.2,Win32,60,,,,,,,,,,,,,,,,,,,,,,,,,,,,,,,,7,,,0,14,14,14,1,,,,,,,,
,,,,,ekiste,качели,ekiste.wav,качели,самолет,пистолет,green,black,black,ekiste = кроссворд?,0,bokente,костыль,farantu,0,2020-05-13_12h51.47.900,words,2020.1.2,Win32,60,,,,,,,,,,,,,,,,,,,,,,,,,,,,,,,,5.335155,bokavu,"[""b"",""o"",""k"",""a"",""v"",""u"",""return""]",0,15,15,15,1,"[2.9037499999976717,3.129784999997355,3.3671849999989263,3.4870950000001812,3.903114999997115,4.351119999999128,5.335155000000441]",,,,,,,
,,,,,apokte,костюм,apokte.wav,маяк,гранат,костюм,black,black,green,apokte = копилка?,0,farimu,конверт,ekiste,0,2020-05-13_12h51.47.900,words,2020.1.2,Win32,60,,,,,,,,,,,,,,,,,,,,,,,,,,,,,,,,6.49272,kavitu,"[""k"",""a"",""v"",""i"",""t"",""u"",""return""]",0,16,16,16,1,"[5.292735000002722,5.388495000003104,5.900730000001204,5.997135000001435,6.308675000000221,6.356654999999591,6.492720000002009]",,,,,,,
,,,,,derene,стол,derene.wav,намордник,компас,стол,black,black,green,derene = самолет?,0,potabu,маяк,kambipu,0,2020-05-13_12h51.47.900,words,2020.1.2,Win32,60,,,,,,,,,,,,,,,,,,,,,,,,,,,,,,,,6.85908,,"[""return""]",0,17,17,17,1,[6.859080000002223],,,,,,,
,,,,,ediste,кроссворд,ediste.wav,гвоздь,мельница,кроссворд,black,black,green,ediste = стол?,0,felkure,веер,apokte,0,2020-05-13_12h51.47.900,words,2020.1.2,Win32,60,,,,,,,,,,,,,,,,,,,,,,,,,,,,,,,,2.282715,,"[""return""]",0,18,18,18,1,[2.2827150000011898],,,,,,,
,,,,,kankeru,компас,kankeru.wav,компас,клубок,костыль,green,black,black,kankeru = компас?,1,ediste,кроссворд,felkure,0,2020-05-13_12h51.47.900,words,2020.1.2,Win32,60,,,,,,,,,,,,,,,,,,,,,,,,,,,,,,,,7,,,0,19,19,19,1,,,,,,,,
,,,,,limate,удочка,limate.wav,удочка,мяч,утюг,green,black,black,limate = удочка?,1,tekuru,хобот,tuvene,0,2020-05-13_12h51.47.900,words,2020.1.2,Win32,60,,,,,,,,,,,,,,,,,,,,,,,,,,,,,,,,6.885625,tekuru,"[""t"",""e"",""k"",""u"",""r"",""u"",""return""]",0,20,20,20,1,"[5.7103050000002895,5.99776000000179,6.421705000000429,6.58973999999921,6.677400000000262,6.757560000001604,6.885625000002392]",,,,,,,
,,,,,enkene,коридор,enkene.wav,коридор,удочка,роза,green,black,black,enkene = коридор?,1,eskife,одуванчик,kovaru,0,2020-05-13_12h51.47.900,words,2020.1.2,Win32,60,,,,,,,,,,,,,,,,,,,,,,,,,,,,,,,,4.77119,eskeru,"[""e"",""s"",""k"",""e"",""r"",""u"",""return""]",0,21,21,21,1,"[2.5392200000023877,2.755185000001802,3.083230000000185,3.3968150000000605,3.9312000000027183,4.091150000000425,4.7711899999994785]",,,,,,,
,,,,,denrete,свисток,denrete.wav,стол,пальма,свисток,black,black,green,denrete = костыль?,0,pafinu,ремень,morvidu,0,2020-05-13_12h51.47.900,words,2020.1.2,Win32,60,,,,,,,,,,,,,,,,,,,,,,,,,,,,,,,,7,,,0,22,22,22,1,,,,,,,,
,,,,,tinfetu,микрофон,tinfetu.wav,стрела,микрофон,пальма,black,green,black,tinfetu = колбаса?,0,kasfine,мельница,kankeru,0,2020-05-13_12h51.47.900,words,2020.1.2,Win32,60,,,,,,,,,,,,,,,,,,,,,,,,,,,,,,,,6.035685,kasfine,"[""k"",""a"",""s"",""f"",""i"",""n"",""e"",""return""]",0,23,23,23,1,"[4.644234999999753,4.781470000001718,5.051484999999957,5.467530000001716,5.619430000002694,5.891440000003058,5.981035000000702,6.035685000002559]",,,,,,,
,,,,,tekuru,хобот,tekuru.wav,точилка,роза,хобот,black,black,green,tekuru = костюм?,0,tuvene,ведро,akufu,0,2020-05-13_12h51.47.900,words,2020.1.2,Win32,60,,,,,,,,,,,,,,,,,,,,,,,,,,,,,,,,6.939485,tuvene,"[""t"",""u"",""v"",""e"",""n"",""e"",""return""]",0,24,24,24,1,"[5.371484999999666,5.707454999999754,6.059470000000147,6.131420000001526,6.547464999999647,6.6432500000009895,6.939484999998967]",,,,,,,
,,,,,akete,колбаса,akete.wav,качели,хобот,колбаса,black,black,green,akete = мельница?,0,derartu,самолет,nevetu,0,2020-05-13_12h51.47.900,words,2020.1.2,Win32,60,,,,,,,,,,,,,,,,,,,,,,,,,,,,,,,,6.24108,,"[""return""]",0,25,25,25,1,[6.2410799999997835],,,,,,,
,,,,,avade,флаг,avade.wav,ремень,стрела,флаг,black,black,green,avade = утюг?,0,topeme,терка,reskane,0,2020-05-13_12h51.47.900,words,2020.1.2,Win32,60,,,,,,,,,,,,,,,,,,,,,,,,,,,,,,,,5.864865,,"[""return""]",0,26,26,26,1,[5.864864999999554],,,,,,,
,,,,,kavitu,копилка,kavitu.wav,веер,шашлык,копилка,black,black,green,kavitu = шприц?,0,enkene,коридор,eskife,0,2020-05-13_12h51.47.900,words,2020.1.2,Win32,60,,,,,,,,,,,,,,,,,,,,,,,,,,,,,,,,5.951525,enkene,"[""e"",""n"",""k"",""e"",""n"",""e"",""return""]",0,27,27,27,1,"[3.1923299999980372,3.663719999996829,3.887639999997191,4.215554999998858,4.703544999996666,5.159534999998868,5.951524999996764]",,,,,,,
,,,,,vantimu,пистолет,vantimu.wav,пистолет,одуванчик,микрофон,green,black,black,vantimu = пистолет?,1,makevu,аквариум,akete,0,2020-05-13_12h51.47.900,words,2020.1.2,Win32,60,,,,,,,,,,,,,,,,,,,,,,,,,,,,,,,,7,,,0,28,28,28,1,,,,,,,,
,,,,,morvidu,гранат,morvidu.wav,шашлык,гранат,удочка,black,green,black,morvidu = гранат?,1,avade,флаг,topeme,0,2020-05-13_12h51.47.900,words,2020.1.2,Win32,60,,,,,,,,,,,,,,,,,,,,,,,,,,,,,,,,7,,"[""m"",""a"",""r"",""backspace"",""backspace"",""backspace"",""backspace""]",0,29,29,29,1,"[1.6805899999999383,1.7995750000009139,2.514209999997547,3.0556350000006205,3.2156049999973675,3.3915799999995215,3.815634999999247]",,,,,,,
,,,,,kambipu,колокол,kambipu.wav,колокол,веер,микрофон,green,black,black,kambipu = колокол?,1,derene,стол,potabu,0,2020-05-13_12h51.47.900,words,2020.1.2,Win32,60,,,,,,,,,,,,,,,,,,,,,,,,,,,,,,,,6.115745,erene,"[""d"",""e"",""r"",""e"",""n"",""e"",""return""]",0,30,30,30,1,"[5.476464999999735,5.5718699999997625,5.7804450000001,5.8518350000013015,5.964130000000296,6.022235000000137,6.115745000002789]",,,,,,,
,,,,,koderde,клубок,koderde.wav,компас,клубок,ведро,black,green,black,koderde = флаг?,0,denrete,свисток,pafinu,0,2020-05-13_12h51.47.900,words,2020.1.2,Win32,60,,,,,,,,,,,,,,,,,,,,,,,,,,,,,,,,6.471285,ereke,"[""d"",""e"",""r"",""e"",""k"",""e"",""return""]",0,31,31,31,1,"[5.399584999999206,5.503544999999576,5.967554999999265,6.039519999998674,6.319500000001426,6.38350999999966,6.471284999999625]",,,,,,,
,,,,,rantare,наперсток,rantare.wav,наперсток,маяк,коридор,green,black,black,rantare = наперсток?,1,koderde,клубок,denrete,0,2020-05-13_12h51.47.900,words,2020.1.2,Win32,60,,,,,,,,,,,,,,,,,,,,,,,,,,,,,,,,7,,"[""k"",""o"",""d"",""e"",""r""]",0,32,32,32,1,"[5.968694999999798,6.056080000002339,6.520075000000588,6.60003000000188,6.807994999999437]",,,,,,,
,,,,,befadu,мяч,befadu.wav,гранат,терка,мяч,black,black,green,befadu = хобот?,0,kavenu,пальма,limate,0,2020-05-13_12h51.47.900,words,2020.1.2,Win32,60,,,,,,,,,,,,,,,,,,,,,,,,,,,,,,,,3.3877,,"[""return""]",0,33,33,33,1,[3.387699999999313],,,,,,,
,,,,,tuvene,ведро,tuvene.wav,ведро,костыль,костюм,green,black,black,tuvene = ведро?,1,akufu,гвоздь,asamu,0,2020-05-13_12h51.47.900,words,2020.1.2,Win32,60,,,,,,,,,,,,,,,,,,,,,,,,,,,,,,,,5.01527,,"[""return""]",0,34,34,34,1,[5.015269999999873],,,,,,,
,,,,,kasfine,мельница,kasfine.wav,ремень,аквариум,мельница,black,black,green,kasfine = качели?,0,kankeru,компас,ediste,0,2020-05-13_12h51.47.900,words,2020.1.2,Win32,60,,,,,,,,,,,,,,,,,,,,,,,,,,,,,,,,5.1515,,"[""return""]",0,35,35,35,1,[5.151499999999942],,,,,,,
,,,,,reskane,стрела,reskane.wav,колбаса,костюм,стрела,black,black,green,reskane = стрела?,1,rantare,наперсток,koderde,0,2020-05-13_12h51.47.900,words,2020.1.2,Win32,60,,,,,,,,,,,,,,,,,,,,,,,,,,,,,,,,7,,,0,36,36,36,1,,,,,,,,
,,,,,akufu,гвоздь,akufu.wav,гвоздь,самолет,клубок,green,black,black,akufu = пальма?,0,asamu,шприц,vortule,0,2020-05-13_12h51.47.900,words,2020.1.2,Win32,60,,,,,,,,,,,,,,,,,,,,,,,,,,,,,,,,2.57616,,"[""return""]",0,37,37,37,1,[2.5761600000007547],,,,,,,
,,,,,makevu,аквариум,makevu.wav,аквариум,конверт,свисток,green,black,black,makevu = аквариум?,1,akete,колбаса,derartu,0,2020-05-13_12h51.47.900,words,2020.1.2,Win32,60,,,,,,,,,,,,,,,,,,,,,,,,,,,,,,,,5.163255,kere,"[""a"",""k"",""e"",""r"",""e"",""return""]",0,38,38,38,1,"[3.034784999999829,4.290754999998171,4.442689999999857,5.013269999999466,5.074779999999009,5.163254999999481]",,,,,,,
,,,,,mubale,намордник,mubale.wav,намордник,мельница,домино,green,black,black,mubale = намордник?,1,kavitu,копилка,enkene,0,2020-05-13_12h51.47.900,words,2020.1.2,Win32,60,,,,,,,,,,,,,,,,,,,,,,,,,,,,,,,,7,,"[""k"",""a"",""v""]",0,39,39,39,1,"[5.790629999999737,5.880484999998089,6.198004999998602]",,,,,,,
,,,,,derartu,самолет,derartu.wav,наперсток,самолет,конверт,black,green,black,derartu = свисток?,0,nevetu,шашлык,vantimu,0,2020-05-13_12h51.47.900,words,2020.1.2,Win32,60,,,,,,,,,,,,,,,,,,,,,,,,,,,,,,,,,,,,,,,,,right,2.891105,0,0,0,0,1
,,,,,asamu,шприц,asamu.wav,одуванчик,флаг,шприц,black,black,green,asamu = клубок?,0,vortule,роза,mubale,0,2020-05-13_12h51.47.900,words,2020.1.2,Win32,60,,,,,,,,,,,,,,,,,,,,,,,,,,,,,,,,,,,,,,,,,right,1.93254,0,1,1,1,1
,,,,,farimu,конверт,farimu.wav,мяч,конверт,компас,black,green,black,farimu = конверт?,1,ekiste,качели,bokente,0,2020-05-13_12h51.47.900,words,2020.1.2,Win32,60,,,,,,,,,,,,,,,,,,,,,,,,,,,,,,,,,,,,,,,,,right,2.472885,0,2,2,2,1
,,,,,vortule,роза,vortule.wav,роза,мельница,коридор,green,black,black,vortule = роза?,1,mubale,намордник,kavitu,0,2020-05-13_12h51.47.900,words,2020.1.2,Win32,60,,,,,,,,,,,,,,,,,,,,,,,,,,,,,,,,,,,,,,,,,left,3.19334,0,3,3,3,1
,,,,,topeme,терка,topeme.wav,качели,домино,терка,black,black,green,topeme = терка?,1,reskane,стрела,rantare,0,2020-05-13_12h51.47.900,words,2020.1.2,Win32,60,,,,,,,,,,,,,,,,,,,,,,,,,,,,,,,,,,,,,,,,,right,3.035365,0,4,4,4,1
,,,,,kavenu,пальма,kavenu.wav,шприц,свисток,пальма,black,black,green,kavenu = домино?,0,limate,удочка,tekuru,0,2020-05-13_12h51.47.900,words,2020.1.2,Win32,60,,,,,,,,,,,,,,,,,,,,,,,,,,,,,,,,,,,,,,,,,left,3.33257,0,5,5,5,1
,,,,,farantu,точилка,farantu.wav,свисток,точилка,шашлык,black,green,black,farantu = точилка?,1,sankadu,домино,befadu,0,2020-05-13_12h51.47.900,words,2020.1.2,Win32,60,,,,,,,,,,,,,,,,,,,,,,,,,,,,,,,,,,,,,,,,,right,2.93819,0,6,6,6,1
,,,,,pafinu,ремень,pafinu.wav,ремень,маяк,шашлык,green,black,black,pafinu = ремень?,1,morvidu,гранат,avade,0,2020-05-13_12h51.47.900,words,2020.1.2,Win32,60,,,,,,,,,,,,,,,,,,,,,,,,,,,,,,,,,,,,,,,,,right,3.654815,0,7,7,7,1
,,,,,nevetu,шашлык,nevetu.wav,шашлык,копилка,стрела,green,black,black,nevetu = шашлык?,1,vantimu,пистолет,makevu,0,2020-05-13_12h51.47.900,words,2020.1.2,Win32,60,,,,,,,,,,,,,,,,,,,,,,,,,,,,,,,,,,,,,,,,,right,3.35141,0,8,8,8,1
,,,,,potabu,маяк,potabu.wav,маяк,клубок,наперсток,green,black,black,potabu = маяк?,1,kambipu,колокол,derene,0,2020-05-13_12h51.47.900,words,2020.1.2,Win32,60,,,,,,,,,,,,,,,,,,,,,,,,,,,,,,,,,,,,,,,,,,,0,9,9,9,1
,,,,,felkure,веер,felkure.wav,шприц,веер,костюм,black,green,black,felkure = веер?,1,apokte,костюм,farimu,0,2020-05-13_12h51.47.900,words,2020.1.2,Win32,60,,,,,,,,,,,,,,,,,,,,,,,,,,,,,,,,,,,,,,,,,right,3.12057,0,10,10,10,1
,,,,,bokente,костыль,bokente.wav,костыль,пальма,кроссворд,green,black,black,bokente = микрофон?,0,farantu,точилка,sankadu,0,2020-05-13_12h51.47.900,words,2020.1.2,Win32,60,,,,,,,,,,,,,,,,,,,,,,,,,,,,,,,,,,,,,,,,,left,2.638385,0,11,11,11,1
,,,,,eskife,одуванчик,eskife.wav,компас,гвоздь,одуванчик,black,black,green,eskife = одуванчик?,1,kovaru,утюг,tinfetu,0,2020-05-13_12h51.47.900,words,2020.1.2,Win32,60,,,,,,,,,,,,,,,,,,,,,,,,,,,,,,,,,,,,,,,,,right,2.33473,0,12,12,12,1
,,,,,kovaru,утюг,kovaru.wav,аквариум,утюг,стрела,black,green,black,kovaru = мяч?,0,tinfetu,микрофон,kasfine,0,2020-05-13_12h51.47.900,words,2020.1.2,Win32,60,,,,,,,,,,,,,,,,,,,,,,,,,,,,,,,,,,,,,,,,,right,2.932695,0,13,13,13,1
,,,,,sankadu,домино,sankadu.wav,стрела,домино,колокол,black,green,black,sankadu = гвоздь?,0,befadu,мяч,kavenu,0,2020-05-13_12h51.47.900,words,2020.1.2,Win32,60,,,,,,,,,,,,,,,,,,,,,,,,,,,,,,,,,,,,,,,,,right,3.15511,0,14,14,14,1
,,,,,ekiste,качели,ekiste.wav,качели,самолет,пистолет,green,black,black,ekiste = кроссворд?,0,bokente,костыль,farantu,0,2020-05-13_12h51.47.900,words,2020.1.2,Win32,60,,,,,,,,,,,,,,,,,,,,,,,,,,,,,,,,,,,,,,,,,right,3.15006,0,15,15,15,1
,,,,,apokte,костюм,apokte.wav,маяк,гранат,костюм,black,black,green,apokte = копилка?,0,farimu,конверт,ekiste,0,2020-05-13_12h51.47.900,words,2020.1.2,Win32,60,,,,,,,,,,,,,,,,,,,,,,,,,,,,,,,,,,,,,,,,,left,3.413115,0,16,16,16,1
,,,,,derene,стол,derene.wav,намордник,компас,стол,black,black,green,derene = самолет?,0,potabu,маяк,kambipu,0,2020-05-13_12h51.47.900,words,2020.1.2,Win32,60,,,,,,,,,,,,,,,,,,,,,,,,,,,,,,,,,,,,,,,,,right,3.68523,0,17,17,17,1
,,,,,ediste,кроссворд,ediste.wav,гвоздь,мельница,кроссворд,black,black,green,ediste = стол?,0,felkure,веер,apokte,0,2020-05-13_12h51.47.900,words,2020.1.2,Win32,60,,,,,,,,,,,,,,,,,,,,,,,,,,,,,,,,,,,,,,,,,right,3.72775,0,18,18,18,1
,,,,,kankeru,компас,kankeru.wav,компас,клубок,костыль,green,black,black,kankeru = компас?,1,ediste,кроссворд,felkure,0,2020-05-13_12h51.47.900,words,2020.1.2,Win32,60,,,,,,,,,,,,,,,,,,,,,,,,,,,,,,,,,,,,,,,,,left,3.833375,0,19,19,19,1
,,,,,limate,удочка,limate.wav,удочка,мяч,утюг,green,black,black,limate = удочка?,1,tekuru,хобот,tuvene,0,2020-05-13_12h51.47.900,words,2020.1.2,Win32,60,,,,,,,,,,,,,,,,,,,,,,,,,,,,,,,,,,,,,,,,,right,3.478075,0,20,20,20,1
,,,,,enkene,коридор,enkene.wav,коридор,удочка,роза,green,black,black,enkene = коридор?,1,eskife,одуванчик,kovaru,0,2020-05-13_12h51.47.900,words,2020.1.2,Win32,60,,,,,,,,,,,,,,,,,,,,,,,,,,,,,,,,,,,,,,,,,right,3.154625,0,21,21,21,1
,,,,,denrete,свисток,denrete.wav,стол,пальма,свисток,black,black,green,denrete = костыль?,0,pafinu,ремень,morvidu,0,2020-05-13_12h51.47.900,words,2020.1.2,Win32,60,,,,,,,,,,,,,,,,,,,,,,,,,,,,,,,,,,,,,,,,,right,2.34601,0,22,22,22,1
,,,,,tinfetu,микрофон,tinfetu.wav,стрела,микрофон,пальма,black,green,black,tinfetu = колбаса?,0,kasfine,мельница,kankeru,0,2020-05-13_12h51.47.900,words,2020.1.2,Win32,60,,,,,,,,,,,,,,,,,,,,,,,,,,,,,,,,,,,,,,,,,left,3.17991,0,23,23,23,1
,,,,,tekuru,хобот,tekuru.wav,точилка,роза,хобот,black,black,green,tekuru = костюм?,0,tuvene,ведро,akufu,0,2020-05-13_12h51.47.900,words,2020.1.2,Win32,60,,,,,,,,,,,,,,,,,,,,,,,,,,,,,,,,,,,,,,,,,right,2.513315,0,24,24,24,1
,,,,,akete,колбаса,akete.wav,качели,хобот,колбаса,black,black,green,akete = мельница?,0,derartu,самолет,nevetu,0,2020-05-13_12h51.47.900,words,2020.1.2,Win32,60,,,,,,,,,,,,,,,,,,,,,,,,,,,,,,,,,,,,,,,,,right,3.53935,0,25,25,25,1
,,,,,avade,флаг,avade.wav,ремень,стрела,флаг,black,black,green,avade = утюг?,0,topeme,терка,reskane,0,2020-05-13_12h51.47.900,words,2020.1.2,Win32,60,,,,,,,,,,,,,,,,,,,,,,,,,,,,,,,,,,,,,,,,,left,2.65081,0,26,26,26,1
,,,,,kavitu,копилка,kavitu.wav,веер,шашлык,копилка,black,black,green,kavitu = шприц?,0,enkene,коридор,eskife,0,2020-05-13_12h51.47.900,words,2020.1.2,Win32,60,,,,,,,,,,,,,,,,,,,,,,,,,,,,,,,,,,,,,,,,,left,3.444375,0,27,27,27,1
,,,,,vantimu,пистолет,vantimu.wav,пистолет,одуванчик,микрофон,green,black,black,vantimu = пистолет?,1,makevu,аквариум,akete,0,2020-05-13_12h51.47.900,words,2020.1.2,Win32,60,,,,,,,,,,,,,,,,,,,,,,,,,,,,,,,,,,,,,,,,,right,3.47766,0,28,28,28,1
,,,,,morvidu,гранат,morvidu.wav,шашлык,гранат,удочка,black,green,black,morvidu = гранат?,1,avade,флаг,topeme,0,2020-05-13_12h51.47.900,words,2020.1.2,Win32,60,,,,,,,,,,,,,,,,,,,,,,,,,,,,,,,,,,,,,,,,,right,3.1632,0,29,29,29,1
,,,,,kambipu,колокол,kambipu.wav,колокол,веер,микрофон,green,black,black,kambipu = колокол?,1,derene,стол,potabu,0,2020-05-13_12h51.47.900,words,2020.1.2,Win32,60,,,,,,,,,,,,,,,,,,,,,,,,,,,,,,,,,,,,,,,,,right,3.111445,0,30,30,30,1
,,,,,koderde,клубок,koderde.wav,компас,клубок,ведро,black,green,black,koderde = флаг?,0,denrete,свисток,pafinu,0,2020-05-13_12h51.47.900,words,2020.1.2,Win32,60,,,,,,,,,,,,,,,,,,,,,,,,,,,,,,,,,,,,,,,,,,,0,31,31,31,1
,,,,,rantare,наперсток,rantare.wav,наперсток,маяк,коридор,green,black,black,rantare = наперсток?,1,koderde,клубок,denrete,0,2020-05-13_12h51.47.900,words,2020.1.2,Win32,60,,,,,,,,,,,,,,,,,,,,,,,,,,,,,,,,,,,,,,,,,right,2.641705,0,32,32,32,1
,,,,,befadu,мяч,befadu.wav,гранат,терка,мяч,black,black,green,befadu = хобот?,0,kavenu,пальма,limate,0,2020-05-13_12h51.47.900,words,2020.1.2,Win32,60,,,,,,,,,,,,,,,,,,,,,,,,,,,,,,,,,,,,,,,,,right,1.8274,0,33,33,33,1
,,,,,tuvene,ведро,tuvene.wav,ведро,костыль,костюм,green,black,black,tuvene = ведро?,1,akufu,гвоздь,asamu,0,2020-05-13_12h51.47.900,words,2020.1.2,Win32,60,,,,,,,,,,,,,,,,,,,,,,,,,,,,,,,,,,,,,,,,,left,2.419075,0,34,34,34,1
,,,,,kasfine,мельница,kasfine.wav,ремень,аквариум,мельница,black,black,green,kasfine = качели?,0,kankeru,компас,ediste,0,2020-05-13_12h51.47.900,words,2020.1.2,Win32,60,,,,,,,,,,,,,,,,,,,,,,,,,,,,,,,,,,,,,,,,,right,2.580315,0,35,35,35,1
,,,,,reskane,стрела,reskane.wav,колбаса,костюм,стрела,black,black,green,reskane = стрела?,1,rantare,наперсток,koderde,0,2020-05-13_12h51.47.900,words,2020.1.2,Win32,60,,,,,,,,,,,,,,,,,,,,,,,,,,,,,,,,,,,,,,,,,right,3.18026,0,36,36,36,1
,,,,,akufu,гвоздь,akufu.wav,гвоздь,самолет,клубок,green,black,black,akufu = пальма?,0,asamu,шприц,vortule,0,2020-05-13_12h51.47.900,words,2020.1.2,Win32,60,,,,,,,,,,,,,,,,,,,,,,,,,,,,,,,,,,,,,,,,,right,3.268445,0,37,37,37,1
,,,,,makevu,аквариум,makevu.wav,аквариум,конверт,свисток,green,black,black,makevu = аквариум?,1,akete,колбаса,derartu,0,2020-05-13_12h51.47.900,words,2020.1.2,Win32,60,,,,,,,,,,,,,,,,,,,,,,,,,,,,,,,,,,,,,,,,,right,3.10047,0,38,38,38,1
,,,,,mubale,намордник,mubale.wav,намордник,мельница,домино,green,black,black,mubale = намордник?,1,kavitu,копилка,enkene,0,2020-05-13_12h51.47.900,words,2020.1.2,Win32,60,,,,,,,,,,,,,,,,,,,,,,,,,,,,,,,,,,,,,,,,,right,2.788695,0,39,39,39,1
