trials_2.thisRepN,trials_2.thisTrialN,trials_2.thisN,trials_2.thisIndex,trials_2.ran,AL,L1,sound_path,AFC1,AFC2,AFC3,AFC1_color,AFC2_color,AFC3_color,recognition_text,recognition_correctness,recall_AL,recall_L1,SEM_AL,variant,date,expName,psychopyVersion,OS,frameRate,key_resp_2.keys,key_resp_2.rt,trials_3.thisRepN,trials_3.thisTrialN,trials_3.thisN,trials_3.thisIndex,trials_3.ran,key_resp.keys,key_resp.rt,recall_rt,recall_text,trials.thisRepN,trials.thisTrialN,trials.thisN,trials.thisIndex,trials.ran,trials_4.thisRepN,trials_4.thisTrialN,trials_4.thisN,trials_4.thisIndex,trials_4.ran,rows,key_resp_10.keys,key_resp_10.rt,key_resp_3.keys,key_resp_3.rt,trials_5.thisRepN,trials_5.thisTrialN,trials_5.thisN,trials_5.thisIndex,trials_5.ran,recall_test_rt,recall_test_text,key_resp_4.keys,trials_6.thisRepN,trials_6.thisTrialN,trials_6.thisN,trials_6.thisIndex,trials_6.ran,key_resp_4.rt,key_resp_5.keys,key_resp_5.rt,trials_7.thisRepN,trials_7.thisTrialN,trials_7.thisN,trials_7.thisIndex,trials_7.ran
0,0,0,0,1,kanvidu,аквариум,kanvidu.wav,свисток,аквариум,конверт,black,green,black,kanvidu = аквариум?,1,abadu,кроссворд,kanvidu,5,2020-05-13_22h08.41.249,words,2020.1.2,Win32,60,,,,,,,,,,,,,,,,,,,,,,,,,,,,,,,,,,,,,,,,,,,,,,,
0,1,1,1,1,larantu,компас,larantu.wav,компас,клубок,костыль,green,black,black,larantu = утюг?,0,enveku,микрофон,madide,5,2020-05-13_22h08.41.249,words,2020.1.2,Win32,60,,,,,,,,,,,,,,,,,,,,,,,,,,,,,,,,,,,,,,,,,,,,,,,
0,2,2,2,1,enkontu,мяч,enkontu.wav,терка,гранат,мяч,black,black,green,enkontu = мяч?,1,maviru,костыль,invaltu,5,2020-05-13_22h08.41.249,words,2020.1.2,Win32,60,,,,,,,,,,,,,,,,,,,,,,,,,,,,,,,,,,,,,,,,,,,,,,,
0,3,3,3,1,venkere,ведро,venkere.wav,ведро,костюм,костыль,green,black,black,venkere = терка?,0,aderu,маяк,larantu,5,2020-05-13_22h08.41.249,words,2020.1.2,Win32,60,,,,,,,,,,,,,,,,,,,,,,,,,,,,,,,,,,,,,,,,,,,,,,,
0,4,4,4,1,tanibu,хобот,tanibu.wav,точилка,роза,хобот,black,black,green,tanibu = хобот?,1,trokele,наперсток,nukene,5,2020-05-13_22h08.41.249,words,2020.1.2,Win32,60,,,,,,,,,,,,,,,,,,,,,,,,,,,,,,,,,,,,,,,,,,,,,,,
0,5,5,5,1,lornitu,копилка,lornitu.wav,копилка,веер,шашлык,green,black,black,lornitu = маяк?,0,favatu,клубок,enkade,5,2020-05-13_22h08.41.249,words,2020.1.2,Win32,60,,,,,,,,,,,,,,,,,,,,,,,,,,,,,,,,,,,,,,,,,,,,,,,
0,6,6,6,1,devinde,мельница,devinde.wav,аквариум,ремень,мельница,black,black,green,devinde = конверт?,0,lornitu,копилка,favatu,5,2020-05-13_22h08.41.249,words,2020.1.2,Win32,60,,,,,,,,,,,,,,,,,,,,,,,,,,,,,,,,,,,,,,,,,,,,,,,
0,7,7,7,1,takuru,терка,takuru.wav,качели,терка,домино,black,green,black,takuru = точилка?,0,sulvidu,утюг,tevone,5,2020-05-13_22h08.41.249,words,2020.1.2,Win32,60,,,,,,,,,,,,,,,,,,,,,,,,,,,,,,,,,,,,,,,,,,,,,,,
0,8,8,8,1,adiste,колокол,adiste.wav,микрофон,веер,колокол,black,black,green,adiste = колокол?,1,enkontu,мяч,maviru,5,2020-05-13_22h08.41.249,words,2020.1.2,Win32,60,,,,,,,,,,,,,,,,,,,,,,,,,,,,,,,,,,,,,,,,,,,,,,,
,,,,,kanvidu,аквариум,kanvidu.wav,свисток,аквариум,конверт,black,green,black,kanvidu = аквариум?,1,abadu,кроссворд,kanvidu,5,2020-05-13_22h08.41.249,words,2020.1.2,Win32,60,down,2.87537,0,0,0,0,1,,,,,,,,,,,,,,,,,,,,,,,,,,,,,,,,,,,,,,,,
,,,,,larantu,компас,larantu.wav,компас,клубок,костыль,green,black,black,larantu = утюг?,0,enveku,микрофон,madide,5,2020-05-13_22h08.41.249,words,2020.1.2,Win32,60,left,3.136515,0,1,1,1,1,,,,,,,,,,,,,,,,,,,,,,,,,,,,,,,,,,,,,,,,
,,,,,enkontu,мяч,enkontu.wav,терка,гранат,мяч,black,black,green,enkontu = мяч?,1,maviru,костыль,invaltu,5,2020-05-13_22h08.41.249,words,2020.1.2,Win32,60,,,0,2,2,2,1,,,,,,,,,,,,,,,,,,,,,,,,,,,,,,,,,,,,,,,,
,,,,,venkere,ведро,venkere.wav,ведро,костюм,костыль,green,black,black,venkere = терка?,0,aderu,маяк,larantu,5,2020-05-13_22h08.41.249,words,2020.1.2,Win32,60,left,1.757735,0,3,3,3,1,,,,,,,,,,,,,,,,,,,,,,,,,,,,,,,,,,,,,,,,
,,,,,tanibu,хобот,tanibu.wav,точилка,роза,хобот,black,black,green,tanibu = хобот?,1,trokele,наперсток,nukene,5,2020-05-13_22h08.41.249,words,2020.1.2,Win32,60,right,1.42821,0,4,4,4,1,,,,,,,,,,,,,,,,,,,,,,,,,,,,,,,,,,,,,,,,
,,,,,lornitu,копилка,lornitu.wav,копилка,веер,шашлык,green,black,black,lornitu = маяк?,0,favatu,клубок,enkade,5,2020-05-13_22h08.41.249,words,2020.1.2,Win32,60,left,2.17721,0,5,5,5,1,,,,,,,,,,,,,,,,,,,,,,,,,,,,,,,,,,,,,,,,
,,,,,devinde,мельница,devinde.wav,аквариум,ремень,мельница,black,black,green,devinde = конверт?,0,lornitu,копилка,favatu,5,2020-05-13_22h08.41.249,words,2020.1.2,Win32,60,right,2.409045,0,6,6,6,1,,,,,,,,,,,,,,,,,,,,,,,,,,,,,,,,,,,,,,,,
,,,,,takuru,терка,takuru.wav,качели,терка,домино,black,green,black,takuru = точилка?,0,sulvidu,утюг,tevone,5,2020-05-13_22h08.41.249,words,2020.1.2,Win32,60,down,1.427555,0,7,7,7,1,,,,,,,,,,,,,,,,,,,,,,,,,,,,,,,,,,,,,,,,
,,,,,adiste,колокол,adiste.wav,микрофон,веер,колокол,black,black,green,adiste = колокол?,1,enkontu,мяч,maviru,5,2020-05-13_22h08.41.249,words,2020.1.2,Win32,60,right,1.208565,0,8,8,8,1,,,,,,,,,,,,,,,,,,,,,,,,,,,,,,,,,,,,,,,,
,,,,,maviru,костыль,maviru.wav,пальма,кроссворд,костыль,black,black,green,maviru = костыль?,1,invaltu,намордник,mugalu,5,2020-05-13_22h08.41.249,words,2020.1.2,Win32,60,right,2.127225,0,9,9,9,1,,,,,,,,,,,,,,,,,,,,,,,,,,,,,,,,,,,,,,,,
,,,,,kanvidu,аквариум,kanvidu.wav,свисток,аквариум,конверт,black,green,black,kanvidu = аквариум?,1,abadu,кроссворд,kanvidu,5,2020-05-13_22h08.41.249,words,2020.1.2,Win32,60,,,,,,,,"[""return""]",[4.139430000097491],4.13943,,0,0,0,0,1,,,,,,,,,,,,,,,,,,,,,,,,,,,,,,,
,,,,,larantu,компас,larantu.wav,компас,клубок,костыль,green,black,black,larantu = утюг?,0,enveku,микрофон,madide,5,2020-05-13_22h08.41.249,words,2020.1.2,Win32,60,,,,,,,,,,7,,0,1,1,1,1,,,,,,,,,,,,,,,,,,,,,,,,,,,,,,,
,,,,,enkontu,мяч,enkontu.wav,терка,гранат,мяч,black,black,green,enkontu = мяч?,1,maviru,костыль,invaltu,5,2020-05-13_22h08.41.249,words,2020.1.2,Win32,60,,,,,,,,,,7,,0,2,2,2,1,,,,,,,,,,,,,,,,,,,,,,,,,,,,,,,
,,,,,venkere,ведро,venkere.wav,ведро,костюм,костыль,green,black,black,venkere = терка?,0,aderu,маяк,larantu,5,2020-05-13_22h08.41.249,words,2020.1.2,Win32,60,,,,,,,,"[""v"",""e"",""n"",""t"",""e"",""r"",""e"",""return""]","[1.488954999949783,3.2683049999177456,3.4748699999181554,3.798895000014454,4.224904999951832,4.383174999966286,4.490374999935739,4.691519999993034]",4.69152,ventere,0,3,3,3,1,,,,,,,,,,,,,,,,,,,,,,,,,,,,,,,
,,,,,tanibu,хобот,tanibu.wav,точилка,роза,хобот,black,black,green,tanibu = хобот?,1,trokele,наперсток,nukene,5,2020-05-13_22h08.41.249,words,2020.1.2,Win32,60,,,,,,,,,,7,,0,4,4,4,1,,,,,,,,,,,,,,,,,,,,,,,,,,,,,,,
,,,,,lornitu,копилка,lornitu.wav,копилка,веер,шашлык,green,black,black,lornitu = маяк?,0,favatu,клубок,enkade,5,2020-05-13_22h08.41.249,words,2020.1.2,Win32,60,,,,,,,,"[""a"",""d"",""backspace"",""l"",""backspace""]","[3.518350000027567,3.7406049999408424,4.397254999959841,5.870650000055321,6.866550000035204]",7,,0,5,5,5,1,,,,,,,,,,,,,,,,,,,,,,,,,,,,,,,
,,,,,devinde,мельница,devinde.wav,аквариум,ремень,мельница,black,black,green,devinde = конверт?,0,lornitu,копилка,favatu,5,2020-05-13_22h08.41.249,words,2020.1.2,Win32,60,,,,,,,,"[""v"",""e"",""n"",""k"",""e"",""r"",""e""]","[3.427089999895543,3.6313399999635294,4.0182899999199435,4.848744999966584,4.924099999945611,5.002354999887757,5.157069999957457]",7,,0,6,6,6,1,,,,,,,,,,,,,,,,,,,,,,,,,,,,,,,
,,,,,takuru,терка,takuru.wav,качели,терка,домино,black,green,black,takuru = точилка?,0,sulvidu,утюг,tevone,5,2020-05-13_22h08.41.249,words,2020.1.2,Win32,60,,,,,,,,"[""t"",""a"",""n"",""i"",""b"",""u""]","[2.24113999994006,2.509345000027679,2.6991249999264255,3.1683000000193715,3.994345000013709,4.372970000025816]",7,,0,7,7,7,1,,,,,,,,,,,,,,,,,,,,,,,,,,,,,,,
,,,,,adiste,колокол,adiste.wav,микрофон,веер,колокол,black,black,green,adiste = колокол?,1,enkontu,мяч,maviru,5,2020-05-13_22h08.41.249,words,2020.1.2,Win32,60,,,,,,,,"[""a"",""d"",""i"",""s"",""t"",""e""]","[2.2536700000055134,2.4169899999396876,2.7477399999042973,2.9475000000093132,3.2249299999093637,3.4345399999292567]",7,,0,8,8,8,1,,,,,,,,,,,,,,,,,,,,,,,,,,,,,,,
,,,,,maviru,костыль,maviru.wav,пальма,кроссворд,костыль,black,black,green,maviru = костыль?,1,invaltu,намордник,mugalu,5,2020-05-13_22h08.41.249,words,2020.1.2,Win32,60,,,,,,,,"[""k"",""o"",""l""]","[5.002475000103004,5.185110000078566,6.4024800000479445]",7,,0,9,9,9,1,,,,,,,,,,,,,,,,,,,,,,,,,,,,,,,
,,,,,,,,,,,,,,,,,,,5,2020-05-13_22h08.41.249,words,2020.1.2,Win32,60,,,,,,,,,,,,,,,,,0,0,0,0,1,0:10,,,,,,,,,,,,,,,,,,,,,,,,,
0,0,0,0,1,beskadu,удочка,beskadu.wav,мяч,утюг,удочка,black,black,green,beskadu = удочка?,1,tanibu,хобот,trokele,5,2020-05-13_22h08.41.249,words,2020.1.2,Win32,60,,,,,,,,,,,,,,,,,,,,,,,,,,,,,,,,,,,,,,,,,,,,,,,
0,1,1,1,1,enkade,точилка,enkade.wav,шашлык,свисток,точилка,black,black,green,enkade = наперсток?,0,takuru,терка,sulvidu,5,2020-05-13_22h08.41.249,words,2020.1.2,Win32,60,,,,,,,,,,,,,,,,,,,,,,,,,,,,,,,,,,,,,,,,,,,,,,,
0,2,2,2,1,pentave,колбаса,pentave.wav,хобот,колбаса,качели,black,green,black,pentave = колбаса?,1,enkalu,веер,adiste,5,2020-05-13_22h08.41.249,words,2020.1.2,Win32,60,,,,,,,,,,,,,,,,,,,,,,,,,,,,,,,,,,,,,,,,,,,,,,,
0,3,3,3,1,mugalu,свисток,mugalu.wav,пальма,стол,свисток,black,black,green,mugalu = свисток?,1,savere,стрела,sevade,5,2020-05-13_22h08.41.249,words,2020.1.2,Win32,60,,,,,,,,,,,,,,,,,,,,,,,,,,,,,,,,,,,,,,,,,,,,,,,
0,4,4,4,1,pikide,качели,pikide.wav,качели,самолет,пистолет,green,black,black,pikide = стол?,0,dinrase,домино,devinde,5,2020-05-13_22h08.41.249,words,2020.1.2,Win32,60,,,,,,,,,,,,,,,,,,,,,,,,,,,,,,,,,,,,,,,,,,,,,,,
0,5,5,5,1,abadu,кроссворд,abadu.wav,гвоздь,мельница,кроссворд,black,black,green,abadu = домино?,0,kanvidu,аквариум,abadu,5,2020-05-13_22h08.41.249,words,2020.1.2,Win32,60,,,,,,,,,,,,,,,,,,,,,,,,,,,,,,,,,,,,,,,,,,,,,,,
0,6,6,6,1,enveku,микрофон,enveku.wav,пальма,стрела,микрофон,black,black,green,enveku = микрофон?,1,madide,флаг,tivere,5,2020-05-13_22h08.41.249,words,2020.1.2,Win32,60,,,,,,,,,,,,,,,,,,,,,,,,,,,,,,,,,,,,,,,,,,,,,,,
0,7,7,7,1,favatu,клубок,favatu.wav,клубок,компас,ведро,green,black,black,favatu = клубок?,1,enkade,точилка,takuru,5,2020-05-13_22h08.41.249,words,2020.1.2,Win32,60,,,,,,,,,,,,,,,,,,,,,,,,,,,,,,,,,,,,,,,,,,,,,,,
,,,,,beskadu,удочка,beskadu.wav,мяч,утюг,удочка,black,black,green,beskadu = удочка?,1,tanibu,хобот,trokele,5,2020-05-13_22h08.41.249,words,2020.1.2,Win32,60,right,2.61698,0,0,0,0,1,,,,,,,,,,,,,,,,,,,,,,,,,,,,,,,,,,,,,,,,
,,,,,enkade,точилка,enkade.wav,шашлык,свисток,точилка,black,black,green,enkade = наперсток?,0,takuru,терка,sulvidu,5,2020-05-13_22h08.41.249,words,2020.1.2,Win32,60,right,2.393495,0,1,1,1,1,,,,,,,,,,,,,,,,,,,,,,,,,,,,,,,,,,,,,,,,
,,,,,pentave,колбаса,pentave.wav,хобот,колбаса,качели,black,green,black,pentave = колбаса?,1,enkalu,веер,adiste,5,2020-05-13_22h08.41.249,words,2020.1.2,Win32,60,down,2.51342,0,2,2,2,1,,,,,,,,,,,,,,,,,,,,,,,,,,,,,,,,,,,,,,,,
,,,,,mugalu,свисток,mugalu.wav,пальма,стол,свисток,black,black,green,mugalu = свисток?,1,savere,стрела,sevade,5,2020-05-13_22h08.41.249,words,2020.1.2,Win32,60,right,2.234925,0,3,3,3,1,,,,,,,,,,,,,,,,,,,,,,,,,,,,,,,,,,,,,,,,
,,,,,pikide,качели,pikide.wav,качели,самолет,пистолет,green,black,black,pikide = стол?,0,dinrase,домино,devinde,5,2020-05-13_22h08.41.249,words,2020.1.2,Win32,60,left,1.91172,0,4,4,4,1,,,,,,,,,,,,,,,,,,,,,,,,,,,,,,,,,,,,,,,,
,,,,,abadu,кроссворд,abadu.wav,гвоздь,мельница,кроссворд,black,black,green,abadu = домино?,0,kanvidu,аквариум,abadu,5,2020-05-13_22h08.41.249,words,2020.1.2,Win32,60,right,1.496885,0,5,5,5,1,,,,,,,,,,,,,,,,,,,,,,,,,,,,,,,,,,,,,,,,
,,,,,enveku,микрофон,enveku.wav,пальма,стрела,микрофон,black,black,green,enveku = микрофон?,1,madide,флаг,tivere,5,2020-05-13_22h08.41.249,words,2020.1.2,Win32,60,right,1.62641,0,6,6,6,1,,,,,,,,,,,,,,,,,,,,,,,,,,,,,,,,,,,,,,,,
,,,,,favatu,клубок,favatu.wav,клубок,компас,ведро,green,black,black,favatu = клубок?,1,enkade,точилка,takuru,5,2020-05-13_22h08.41.249,words,2020.1.2,Win32,60,left,2.353155,0,7,7,7,1,,,,,,,,,,,,,,,,,,,,,,,,,,,,,,,,,,,,,,,,
,,,,,tivere,шашлык,tivere.wav,стрела,копилка,шашлык,black,black,green,tivere = шашлык?,1,vembare,костюм,kaltane,5,2020-05-13_22h08.41.249,words,2020.1.2,Win32,60,right,1.952235,0,8,8,8,1,,,,,,,,,,,,,,,,,,,,,,,,,,,,,,,,,,,,,,,,
,,,,,beskadu,удочка,beskadu.wav,мяч,утюг,удочка,black,black,green,beskadu = удочка?,1,tanibu,хобот,trokele,5,2020-05-13_22h08.41.249,words,2020.1.2,Win32,60,,,,,,,,,,7,,0,0,0,0,1,,,,,,,,,,,,,,,,,,,,,,,,,,,,,,,
,,,,,enkade,точилка,enkade.wav,шашлык,свисток,точилка,black,black,green,enkade = наперсток?,0,takuru,терка,sulvidu,5,2020-05-13_22h08.41.249,words,2020.1.2,Win32,60,,,,,,,,"[""d"",""r"",""o"",""c"",""h"",""i"",""l"",""k"",""a""]","[2.97199999995064,3.214269999996759,3.3937699999660254,4.159779999987222,4.416349999955855,4.817829999956302,5.048010000027716,5.223349999985658,5.869270000024699]",7,,0,1,1,1,1,,,,,,,,,,,,,,,,,,,,,,,,,,,,,,,
,,,,,pentave,колбаса,pentave.wav,хобот,колбаса,качели,black,green,black,pentave = колбаса?,1,enkalu,веер,adiste,5,2020-05-13_22h08.41.249,words,2020.1.2,Win32,60,,,,,,,,,,7,,0,2,2,2,1,,,,,,,,,,,,,,,,,,,,,,,,,,,,,,,
,,,,,mugalu,свисток,mugalu.wav,пальма,стол,свисток,black,black,green,mugalu = свисток?,1,savere,стрела,sevade,5,2020-05-13_22h08.41.249,words,2020.1.2,Win32,60,,,,,,,,"[""m"",""i"",""backspace"",""u""]","[5.317769999965094,5.689119999995455,6.416429999982938,6.607805000036024]",7,,0,3,3,3,1,,,,,,,,,,,,,,,,,,,,,,,,,,,,,,,
,,,,,pikide,качели,pikide.wav,качели,самолет,пистолет,green,black,black,pikide = стол?,0,dinrase,домино,devinde,5,2020-05-13_22h08.41.249,words,2020.1.2,Win32,60,,,,,,,,"[""p"",""i"",""k"",""a"",""d"",""e""]","[2.9205849999561906,3.3759200000204146,3.620714999968186,4.00008499994874,4.21703499997966,4.29495999997016]",7,,0,4,4,4,1,,,,,,,,,,,,,,,,,,,,,,,,,,,,,,,
,,,,,abadu,кроссворд,abadu.wav,гвоздь,мельница,кроссворд,black,black,green,abadu = домино?,0,kanvidu,аквариум,abadu,5,2020-05-13_22h08.41.249,words,2020.1.2,Win32,60,,,,,,,,"[""a"",""b"",""a"",""d"",""u""]","[2.160160000086762,3.675084999995306,3.890735000022687,4.092445000074804,4.301380000077188]",7,,0,5,5,5,1,,,,,,,,,,,,,,,,,,,,,,,,,,,,,,,
,,,,,enveku,микрофон,enveku.wav,пальма,стрела,микрофон,black,black,green,enveku = микрофон?,1,madide,флаг,tivere,5,2020-05-13_22h08.41.249,words,2020.1.2,Win32,60,,,,,,,,"[""e"",""v"",""e"",""backspace"",""i"",""backspace"",""e"",""backspace"",""backspace""]","[1.7007750000339001,2.261904999963008,2.480570000014268,3.83816000004299,4.113520000013523,5.486995000042953,5.662159999948926,6.300180000020191,6.442900000023656]",7,,0,6,6,6,1,,,,,,,,,,,,,,,,,,,,,,,,,,,,,,,
,,,,,favatu,клубок,favatu.wav,клубок,компас,ведро,green,black,black,favatu = клубок?,1,enkade,точилка,takuru,5,2020-05-13_22h08.41.249,words,2020.1.2,Win32,60,,,,,,,,"[""h"",""u"",""i""]","[4.098710000049323,5.414880000054836,5.599075000034645]",7,,0,7,7,7,1,,,,,,,,,,,,,,,,,,,,,,,,,,,,,,,
,,,,,tivere,шашлык,tivere.wav,стрела,копилка,шашлык,black,black,green,tivere = шашлык?,1,vembare,костюм,kaltane,5,2020-05-13_22h08.41.249,words,2020.1.2,Win32,60,,,,,,,,"[""t"",""i"",""v"",""e"",""r"",""e""]","[2.653480000095442,2.918294999981299,3.3687100000679493,3.615485000074841,3.8154499999945983,4.027255000080913]",7,,0,8,8,8,1,,,,,,,,,,,,,,,,,,,,,,,,,,,,,,,
,,,,,,,,,,,,,,,,,,,5,2020-05-13_22h08.41.249,words,2020.1.2,Win32,60,,,,,,,,,,,,,,,,,0,1,1,1,1,11:20,,,,,,,,,,,,,,,,,,,,,,,,,
0,0,0,0,1,savere,стрела,savere.wav,стрела,колбаса,костюм,green,black,black,savere = шприц?,0,sevade,коридор,feranu,5,2020-05-13_22h08.41.249,words,2020.1.2,Win32,60,,,,,,,,,,,,,,,,,,,,,,,,,,,,,,,,,,,,,,,,,,,,,,,
0,1,1,1,1,ovarde,конверт,ovarde.wav,компас,конверт,мяч,black,green,black,ovarde = компас?,0,erfate,гранат,beskadu,5,2020-05-13_22h08.41.249,words,2020.1.2,Win32,60,,,,,,,,,,,,,,,,,,,,,,,,,,,,,,,,,,,,,,,,,,,,,,,
0,2,2,2,1,erfate,гранат,erfate.wav,гранат,шашлык,удочка,green,black,black,erfate = гранат?,1,beskadu,удочка,tanibu,5,2020-05-13_22h08.41.249,words,2020.1.2,Win32,60,,,,,,,,,,,,,,,,,,,,,,,,,,,,,,,,,,,,,,,,,,,,,,,
0,3,3,3,1,panabu,гвоздь,panabu.wav,гвоздь,клубок,самолет,green,black,black,panabu = гвоздь?,1,akastu,шприц,venkere,5,2020-05-13_22h08.41.249,words,2020.1.2,Win32,60,,,,,,,,,,,,,,,,,,,,,,,,,,,,,,,,,,,,,,,,,,,,,,,
0,4,4,4,1,akastu,шприц,akastu.wav,одуванчик,флаг,шприц,black,black,green,akastu = самолет?,0,venkere,ведро,aderu,5,2020-05-13_22h08.41.249,words,2020.1.2,Win32,60,,,,,,,,,,,,,,,,,,,,,,,,,,,,,,,,,,,,,,,,,,,,,,,
0,5,5,5,1,enkalu,веер,enkalu.wav,шприц,веер,костюм,black,green,black,enkalu = веер?,1,adiste,колокол,enkontu,5,2020-05-13_22h08.41.249,words,2020.1.2,Win32,60,,,,,,,,,,,,,,,,,,,,,,,,,,,,,,,,,,,,,,,,,,,,,,,
0,6,6,6,1,dinrase,домино,dinrase.wav,домино,стрела,колокол,green,black,black,dinrase = копилка?,0,devinde,мельница,lornitu,5,2020-05-13_22h08.41.249,words,2020.1.2,Win32,60,,,,,,,,,,,,,,,,,,,,,,,,,,,,,,,,,,,,,,,,,,,,,,,
0,7,7,7,1,pakanu,пистолет,pakanu.wav,пистолет,микрофон,одуванчик,green,black,black,pakanu = пистолет?,1,panabu,гвоздь,akastu,5,2020-05-13_22h08.41.249,words,2020.1.2,Win32,60,,,,,,,,,,,,,,,,,,,,,,,,,,,,,,,,,,,,,,,,,,,,,,,
,,,,,savere,стрела,savere.wav,стрела,колбаса,костюм,green,black,black,savere = шприц?,0,sevade,коридор,feranu,5,2020-05-13_22h08.41.249,words,2020.1.2,Win32,60,left,2.14462,0,0,0,0,1,,,,,,,,,,,,,,,,,,,,,,,,,,,,,,,,,,,,,,,,
,,,,,ovarde,конверт,ovarde.wav,компас,конверт,мяч,black,green,black,ovarde = компас?,0,erfate,гранат,beskadu,5,2020-05-13_22h08.41.249,words,2020.1.2,Win32,60,down,2.08049,0,1,1,1,1,,,,,,,,,,,,,,,,,,,,,,,,,,,,,,,,,,,,,,,,
,,,,,erfate,гранат,erfate.wav,гранат,шашлык,удочка,green,black,black,erfate = гранат?,1,beskadu,удочка,tanibu,5,2020-05-13_22h08.41.249,words,2020.1.2,Win32,60,left,1.74562,0,2,2,2,1,,,,,,,,,,,,,,,,,,,,,,,,,,,,,,,,,,,,,,,,
,,,,,panabu,гвоздь,panabu.wav,гвоздь,клубок,самолет,green,black,black,panabu = гвоздь?,1,akastu,шприц,venkere,5,2020-05-13_22h08.41.249,words,2020.1.2,Win32,60,left,2.298495,0,3,3,3,1,,,,,,,,,,,,,,,,,,,,,,,,,,,,,,,,,,,,,,,,
,,,,,akastu,шприц,akastu.wav,одуванчик,флаг,шприц,black,black,green,akastu = самолет?,0,venkere,ведро,aderu,5,2020-05-13_22h08.41.249,words,2020.1.2,Win32,60,right,1.793715,0,4,4,4,1,,,,,,,,,,,,,,,,,,,,,,,,,,,,,,,,,,,,,,,,
,,,,,enkalu,веер,enkalu.wav,шприц,веер,костюм,black,green,black,enkalu = веер?,1,adiste,колокол,enkontu,5,2020-05-13_22h08.41.249,words,2020.1.2,Win32,60,down,1.41258,0,5,5,5,1,,,,,,,,,,,,,,,,,,,,,,,,,,,,,,,,,,,,,,,,
,,,,,dinrase,домино,dinrase.wav,домино,стрела,колокол,green,black,black,dinrase = копилка?,0,devinde,мельница,lornitu,5,2020-05-13_22h08.41.249,words,2020.1.2,Win32,60,left,2.43553,0,6,6,6,1,,,,,,,,,,,,,,,,,,,,,,,,,,,,,,,,,,,,,,,,
,,,,,pakanu,пистолет,pakanu.wav,пистолет,микрофон,одуванчик,green,black,black,pakanu = пистолет?,1,panabu,гвоздь,akastu,5,2020-05-13_22h08.41.249,words,2020.1.2,Win32,60,left,2.194395,0,7,7,7,1,,,,,,,,,,,,,,,,,,,,,,,,,,,,,,,,,,,,,,,,
,,,,,sevade,коридор,sevade.wav,коридор,удочка,роза,green,black,black,sevade = роза?,0,feranu,ремень,pentave,5,2020-05-13_22h08.41.249,words,2020.1.2,Win32,60,left,2.58133,0,8,8,8,1,,,,,,,,,,,,,,,,,,,,,,,,,,,,,,,,,,,,,,,,
,,,,,savere,стрела,savere.wav,стрела,колбаса,костюм,green,black,black,savere = шприц?,0,sevade,коридор,feranu,5,2020-05-13_22h08.41.249,words,2020.1.2,Win32,60,,,,,,,,,,7,,0,0,0,0,1,,,,,,,,,,,,,,,,,,,,,,,,,,,,,,,
,,,,,ovarde,конверт,ovarde.wav,компас,конверт,мяч,black,green,black,ovarde = компас?,0,erfate,гранат,beskadu,5,2020-05-13_22h08.41.249,words,2020.1.2,Win32,60,,,,,,,,"[""f"",""u"",""c"",""k""]","[5.782444999902509,6.017729999963194,6.199449999956414,6.35765999997966]",7,,0,1,1,1,1,,,,,,,,,,,,,,,,,,,,,,,,,,,,,,,
,,,,,erfate,гранат,erfate.wav,гранат,шашлык,удочка,green,black,black,erfate = гранат?,1,beskadu,удочка,tanibu,5,2020-05-13_22h08.41.249,words,2020.1.2,Win32,60,,,,,,,,"[""e"",""v"",""e"",""n"",""t"",""r"",""e""]","[2.500694999936968,3.1985599999316037,3.8488199999555945,4.286280000000261,4.557339999941178,4.869814999983646,4.973069999949075]",7,,0,2,2,2,1,,,,,,,,,,,,,,,,,,,,,,,,,,,,,,,
,,,,,panabu,гвоздь,panabu.wav,гвоздь,клубок,самолет,green,black,black,panabu = гвоздь?,1,akastu,шприц,venkere,5,2020-05-13_22h08.41.249,words,2020.1.2,Win32,60,,,,,,,,"[""p"",""i"",""k"",""a"",""r"",""d"",""o""]","[4.766159999999218,4.974610000033863,5.179024999961257,5.341140000033192,5.8528849999420345,6.102439999929629,6.251444999943487]",7,,0,3,3,3,1,,,,,,,,,,,,,,,,,,,,,,,,,,,,,,,
,,,,,akastu,шприц,akastu.wav,одуванчик,флаг,шприц,black,black,green,akastu = самолет?,0,venkere,ведро,aderu,5,2020-05-13_22h08.41.249,words,2020.1.2,Win32,60,,,,,,,,"[""a"",""k"",""a"",""s"",""t"",""e""]","[1.4859949999954551,2.4049250000389293,2.766954999999143,4.7664199999999255,5.093615000019781,5.272990000084974]",7,,0,4,4,4,1,,,,,,,,,,,,,,,,,,,,,,,,,,,,,,,
,,,,,enkalu,веер,enkalu.wav,шприц,веер,костюм,black,green,black,enkalu = веер?,1,adiste,колокол,enkontu,5,2020-05-13_22h08.41.249,words,2020.1.2,Win32,60,,,,,,,,"[""e"",""backspace"",""backspace"",""e""]","[2.966149999992922,3.4662699999753386,3.642714999965392,4.635565000004135]",7,,0,5,5,5,1,,,,,,,,,,,,,,,,,,,,,,,,,,,,,,,
,,,,,dinrase,домино,dinrase.wav,домино,стрела,колокол,green,black,black,dinrase = копилка?,0,devinde,мельница,lornitu,5,2020-05-13_22h08.41.249,words,2020.1.2,Win32,60,,,,,,,,"[""d"",""i"",""n"",""t"",""e"",""r"",""e""]","[2.31375999993179,2.653374999994412,2.9176349999615923,4.078524999902584,4.27870999998413,4.369605000014417,4.505559999961406]",7,,0,6,6,6,1,,,,,,,,,,,,,,,,,,,,,,,,,,,,,,,
,,,,,pakanu,пистолет,pakanu.wav,пистолет,микрофон,одуванчик,green,black,black,pakanu = пистолет?,1,panabu,гвоздь,akastu,5,2020-05-13_22h08.41.249,words,2020.1.2,Win32,60,,,,,,,,"[""p"",""i"",""s"",""t"",""o"",""l"",""e"",""r"",""backspace"",""t""]","[1.7690799999982119,1.973640000098385,2.1764449999900535,2.482200000085868,2.6831650000531226,2.8826000000117347,3.0031300000846386,3.1358150000451133,3.4163600000320002,3.5656850000377744]",7,,0,7,7,7,1,,,,,,,,,,,,,,,,,,,,,,,,,,,,,,,
,,,,,sevade,коридор,sevade.wav,коридор,удочка,роза,green,black,black,sevade = роза?,0,feranu,ремень,pentave,5,2020-05-13_22h08.41.249,words,2020.1.2,Win32,60,,,,,,,,"[""s"",""a"",""v"",""e"",""n"",""t"",""r"",""e""]","[2.915129999979399,4.297064999933355,4.701859999913722,4.913414999959059,5.2851999999256805,5.585800000000745,5.789054999942891,5.898300000000745]",7,,0,8,8,8,1,,,,,,,,,,,,,,,,,,,,,,,,,,,,,,,
,,,,,,,,,,,,,,,,,,,5,2020-05-13_22h08.41.249,words,2020.1.2,Win32,60,,,,,,,,,,,,,,,,,0,2,2,2,1,21:30,,,,,,,,,,,,,,,,,,,,,,,,,
0,0,0,0,1,feranu,ремень,feranu.wav,шашлык,маяк,ремень,black,black,green,feranu = ремень?,1,pentave,колбаса,enkalu,5,2020-05-13_22h08.41.249,words,2020.1.2,Win32,60,,,,,,,,,,,,,,,,,,,,,,,,,,,,,,,,,,,,,,,,,,,,,,,
0,1,1,1,1,tevone,стол,tevone.wav,намордник,стол,компас,black,green,black,tevone = мельница?,0,senkide,самолет,renape,5,2020-05-13_22h08.41.249,words,2020.1.2,Win32,60,,,,,,,,,,,,,,,,,,,,,,,,,,,,,,,,,,,,,,,,,,,,,,,
0,2,2,2,1,sulvidu,утюг,sulvidu.wav,аквариум,стрела,утюг,black,black,green,sulvidu = коридор?,0,tevone,стол,senkide,5,2020-05-13_22h08.41.249,words,2020.1.2,Win32,60,,,,,,,,,,,,,,,,,,,,,,,,,,,,,,,,,,,,,,,,,,,,,,,
0,3,3,3,1,trokele,наперсток,trokele.wav,наперсток,коридор,маяк,green,black,black,trokele = стрела?,0,nukene,одуванчик,ovarde,5,2020-05-13_22h08.41.249,words,2020.1.2,Win32,60,,,,,,,,,,,,,,,,,,,,,,,,,,,,,,,,,,,,,,,,,,,,,,,
0,4,4,4,1,senkide,самолет,senkide.wav,самолет,конверт,наперсток,green,black,black,senkide = кроссворд?,0,renape,пальма,pakanu,5,2020-05-13_22h08.41.249,words,2020.1.2,Win32,60,,,,,,,,,,,,,,,,,,,,,,,,,,,,,,,,,,,,,,,,,,,,,,,
0,5,5,5,1,vembare,костюм,vembare.wav,костюм,маяк,гранат,green,black,black,vembare = костюм?,1,kaltane,роза,pikide,5,2020-05-13_22h08.41.249,words,2020.1.2,Win32,60,,,,,,,,,,,,,,,,,,,,,,,,,,,,,,,,,,,,,,,,,,,,,,,
0,6,6,6,1,nukene,одуванчик,nukene.wav,компас,одуванчик,гвоздь,black,green,black,nukene = одуванчик?,1,ovarde,конверт,erfate,5,2020-05-13_22h08.41.249,words,2020.1.2,Win32,60,,,,,,,,,,,,,,,,,,,,,,,,,,,,,,,,,,,,,,,,,,,,,,,
0,7,7,7,1,kaltane,роза,kaltane.wav,мельница,роза,коридор,black,green,black,kaltane = качели?,0,pikide,качели,dinrase,5,2020-05-13_22h08.41.249,words,2020.1.2,Win32,60,,,,,,,,,,,,,,,,,,,,,,,,,,,,,,,,,,,,,,,,,,,,,,,
,,,,,feranu,ремень,feranu.wav,шашлык,маяк,ремень,black,black,green,feranu = ремень?,1,pentave,колбаса,enkalu,5,2020-05-13_22h08.41.249,words,2020.1.2,Win32,60,right,2.596015,0,0,0,0,1,,,,,,,,,,,,,,,,,,,,,,,,,,,,,,,,,,,,,,,,
,,,,,tevone,стол,tevone.wav,намордник,стол,компас,black,green,black,tevone = мельница?,0,senkide,самолет,renape,5,2020-05-13_22h08.41.249,words,2020.1.2,Win32,60,down,2.014295,0,1,1,1,1,,,,,,,,,,,,,,,,,,,,,,,,,,,,,,,,,,,,,,,,
,,,,,sulvidu,утюг,sulvidu.wav,аквариум,стрела,утюг,black,black,green,sulvidu = коридор?,0,tevone,стол,senkide,5,2020-05-13_22h08.41.249,words,2020.1.2,Win32,60,right,1.17168,0,2,2,2,1,,,,,,,,,,,,,,,,,,,,,,,,,,,,,,,,,,,,,,,,
,,,,,trokele,наперсток,trokele.wav,наперсток,коридор,маяк,green,black,black,trokele = стрела?,0,nukene,одуванчик,ovarde,5,2020-05-13_22h08.41.249,words,2020.1.2,Win32,60,right,1.154915,0,3,3,3,1,,,,,,,,,,,,,,,,,,,,,,,,,,,,,,,,,,,,,,,,
,,,,,senkide,самолет,senkide.wav,самолет,конверт,наперсток,green,black,black,senkide = кроссворд?,0,renape,пальма,pakanu,5,2020-05-13_22h08.41.249,words,2020.1.2,Win32,60,left,2.616165,0,4,4,4,1,,,,,,,,,,,,,,,,,,,,,,,,,,,,,,,,,,,,,,,,
,,,,,vembare,костюм,vembare.wav,костюм,маяк,гранат,green,black,black,vembare = костюм?,1,kaltane,роза,pikide,5,2020-05-13_22h08.41.249,words,2020.1.2,Win32,60,,,0,5,5,5,1,,,,,,,,,,,,,,,,,,,,,,,,,,,,,,,,,,,,,,,,
,,,,,nukene,одуванчик,nukene.wav,компас,одуванчик,гвоздь,black,green,black,nukene = одуванчик?,1,ovarde,конверт,erfate,5,2020-05-13_22h08.41.249,words,2020.1.2,Win32,60,down,3.02097,0,6,6,6,1,,,,,,,,,,,,,,,,,,,,,,,,,,,,,,,,,,,,,,,,
,,,,,kaltane,роза,kaltane.wav,мельница,роза,коридор,black,green,black,kaltane = качели?,0,pikide,качели,dinrase,5,2020-05-13_22h08.41.249,words,2020.1.2,Win32,60,right,1.93198,0,7,7,7,1,,,,,,,,,,,,,,,,,,,,,,,,,,,,,,,,,,,,,,,,
,,,,,aderu,маяк,aderu.wav,маяк,наперсток,клубок,green,black,black,aderu = ведро?,0,larantu,компас,enveku,5,2020-05-13_22h08.41.249,words,2020.1.2,Win32,60,down,2.39604,0,8,8,8,1,,,,,,,,,,,,,,,,,,,,,,,,,,,,,,,,,,,,,,,,
,,,,,feranu,ремень,feranu.wav,шашлык,маяк,ремень,black,black,green,feranu = ремень?,1,pentave,колбаса,enkalu,5,2020-05-13_22h08.41.249,words,2020.1.2,Win32,60,,,,,,,,"[""r"",""e"",""m"",""e"",""n"",""slash"",""apostrophe""]","[2.5357249999651685,2.6248149999883026,3.0824850000208244,3.3486950000515208,3.5898400000296533,4.982895000022836,5.255665000062436]",7,,0,0,0,0,1,,,,,,,,,,,,,,,,,,,,,,,,,,,,,,,
,,,,,tevone,стол,tevone.wav,намордник,стол,компас,black,green,black,tevone = мельница?,0,senkide,самолет,renape,5,2020-05-13_22h08.41.249,words,2020.1.2,Win32,60,,,,,,,,"[""t"",""a""]","[6.5095349999610335,6.952530000009574]",7,,0,1,1,1,1,,,,,,,,,,,,,,,,,,,,,,,,,,,,,,,
,,,,,sulvidu,утюг,sulvidu.wav,аквариум,стрела,утюг,black,black,green,sulvidu = коридор?,0,tevone,стол,senkide,5,2020-05-13_22h08.41.249,words,2020.1.2,Win32,60,,,,,,,,"[""s"",""u"",""l"",""v"",""i"",""d"",""y"",""backspace"",""u""]","[3.7430900000035763,4.350850000046194,4.8154649999924,5.348379999981262,5.52437999995891,5.901219999999739,6.152690000017174,6.657454999978654,6.969580000033602]",7,,0,2,2,2,1,,,,,,,,,,,,,,,,,,,,,,,,,,,,,,,
,,,,,trokele,наперсток,trokele.wav,наперсток,коридор,маяк,green,black,black,trokele = стрела?,0,nukene,одуванчик,ovarde,5,2020-05-13_22h08.41.249,words,2020.1.2,Win32,60,,,,,,,,"[""t"",""u"",""k""]","[5.692780000041239,6.0652599999448285,6.9039600000251085]",7,,0,3,3,3,1,,,,,,,,,,,,,,,,,,,,,,,,,,,,,,,
,,,,,senkide,самолет,senkide.wav,самолет,конверт,наперсток,green,black,black,senkide = кроссворд?,0,renape,пальма,pakanu,5,2020-05-13_22h08.41.249,words,2020.1.2,Win32,60,,,,,,,,"[""s"",""i"",""n""]","[1.337279999977909,5.062329999986105,5.5843950000125915]",7,,0,4,4,4,1,,,,,,,,,,,,,,,,,,,,,,,,,,,,,,,
,,,,,vembare,костюм,vembare.wav,костюм,маяк,гранат,green,black,black,vembare = костюм?,1,kaltane,роза,pikide,5,2020-05-13_22h08.41.249,words,2020.1.2,Win32,60,,,,,,,,"[""k"",""o"",""s"",""t"",""u"",""m""]","[2.7839099999982864,2.882244999986142,3.0354049999732524,3.241029999917373,3.771874999976717,3.9541999999200925]",7,,0,5,5,5,1,,,,,,,,,,,,,,,,,,,,,,,,,,,,,,,
,,,,,nukene,одуванчик,nukene.wav,компас,одуванчик,гвоздь,black,green,black,nukene = одуванчик?,1,ovarde,конверт,erfate,5,2020-05-13_22h08.41.249,words,2020.1.2,Win32,60,,,,,,,,"[""a"",""r""]","[2.509414999978617,5.216234999941662]",7,,0,6,6,6,1,,,,,,,,,,,,,,,,,,,,,,,,,,,,,,,
,,,,,kaltane,роза,kaltane.wav,мельница,роза,коридор,black,green,black,kaltane = качели?,0,pikide,качели,dinrase,5,2020-05-13_22h08.41.249,words,2020.1.2,Win32,60,,,,,,,,"[""t"",""r"",""a"",""n"",""k"",""i"",""l""]","[5.216699999989942,5.477435000007972,5.748729999992065,5.952195000019856,6.199295000056736,6.378105000010692,6.569604999967851]",7,,0,7,7,7,1,,,,,,,,,,,,,,,,,,,,,,,,,,,,,,,
,,,,,aderu,маяк,aderu.wav,маяк,наперсток,клубок,green,black,black,aderu = ведро?,0,larantu,компас,enveku,5,2020-05-13_22h08.41.249,words,2020.1.2,Win32,60,,,,,,,,"[""m"",""a"",""z"",""backspace"",""y""]","[4.959585000062361,5.325184999965131,5.661584999994375,6.071250000037253,6.550050000078045]",7,,0,8,8,8,1,,,,,,,,,,,,,,,,,,,,,,,,,,,,,,,
,,,,,kanvidu,аквариум,kanvidu.wav,свисток,аквариум,конверт,black,green,black,kanvidu = аквариум?,1,abadu,кроссворд,kanvidu,5,2020-05-13_22h08.41.249,words,2020.1.2,Win32,60,,,,,,,,,,,,,,,,,,,,,,,return,49.734725,left,2.02829,0,0,0,0,1,,,,,,,,,,,,,,,,
,,,,,larantu,компас,larantu.wav,компас,клубок,костыль,green,black,black,larantu = утюг?,0,enveku,микрофон,madide,5,2020-05-13_22h08.41.249,words,2020.1.2,Win32,60,,,,,,,,,,,,,,,,,,,,,,,,,right,2.054475,0,1,1,1,1,,,,,,,,,,,,,,,,
,,,,,enkontu,мяч,enkontu.wav,терка,гранат,мяч,black,black,green,enkontu = мяч?,1,maviru,костыль,invaltu,5,2020-05-13_22h08.41.249,words,2020.1.2,Win32,60,,,,,,,,,,,,,,,,,,,,,,,,,right,1.66955,0,2,2,2,1,,,,,,,,,,,,,,,,
,,,,,venkere,ведро,venkere.wav,ведро,костюм,костыль,green,black,black,venkere = терка?,0,aderu,маяк,larantu,5,2020-05-13_22h08.41.249,words,2020.1.2,Win32,60,,,,,,,,,,,,,,,,,,,,,,,,,right,2.90176,0,3,3,3,1,,,,,,,,,,,,,,,,
,,,,,tanibu,хобот,tanibu.wav,точилка,роза,хобот,black,black,green,tanibu = хобот?,1,trokele,наперсток,nukene,5,2020-05-13_22h08.41.249,words,2020.1.2,Win32,60,,,,,,,,,,,,,,,,,,,,,,,,,left,2.16667,0,4,4,4,1,,,,,,,,,,,,,,,,
,,,,,lornitu,копилка,lornitu.wav,копилка,веер,шашлык,green,black,black,lornitu = маяк?,0,favatu,клубок,enkade,5,2020-05-13_22h08.41.249,words,2020.1.2,Win32,60,,,,,,,,,,,,,,,,,,,,,,,,,left,1.87294,0,5,5,5,1,,,,,,,,,,,,,,,,
,,,,,devinde,мельница,devinde.wav,аквариум,ремень,мельница,black,black,green,devinde = конверт?,0,lornitu,копилка,favatu,5,2020-05-13_22h08.41.249,words,2020.1.2,Win32,60,,,,,,,,,,,,,,,,,,,,,,,,,,,0,6,6,6,1,,,,,,,,,,,,,,,,
,,,,,takuru,терка,takuru.wav,качели,терка,домино,black,green,black,takuru = точилка?,0,sulvidu,утюг,tevone,5,2020-05-13_22h08.41.249,words,2020.1.2,Win32,60,,,,,,,,,,,,,,,,,,,,,,,,,left,2.60188,0,7,7,7,1,,,,,,,,,,,,,,,,
,,,,,adiste,колокол,adiste.wav,микрофон,веер,колокол,black,black,green,adiste = колокол?,1,enkontu,мяч,maviru,5,2020-05-13_22h08.41.249,words,2020.1.2,Win32,60,,,,,,,,,,,,,,,,,,,,,,,,,left,1.75317,0,8,8,8,1,,,,,,,,,,,,,,,,
,,,,,maviru,костыль,maviru.wav,пальма,кроссворд,костыль,black,black,green,maviru = костыль?,1,invaltu,намордник,mugalu,5,2020-05-13_22h08.41.249,words,2020.1.2,Win32,60,,,,,,,,,,,,,,,,,,,,,,,,,left,2.782455,0,9,9,9,1,,,,,,,,,,,,,,,,
,,,,,madide,флаг,madide.wav,стрела,ремень,флаг,black,black,green,madide = флаг?,1,tivere,шашлык,vembare,5,2020-05-13_22h08.41.249,words,2020.1.2,Win32,60,,,,,,,,,,,,,,,,,,,,,,,,,right,1.482425,0,10,10,10,1,,,,,,,,,,,,,,,,
,,,,,beskadu,удочка,beskadu.wav,мяч,утюг,удочка,black,black,green,beskadu = удочка?,1,tanibu,хобот,trokele,5,2020-05-13_22h08.41.249,words,2020.1.2,Win32,60,,,,,,,,,,,,,,,,,,,,,,,,,left,2.68216,0,11,11,11,1,,,,,,,,,,,,,,,,
,,,,,enkade,точилка,enkade.wav,шашлык,свисток,точилка,black,black,green,enkade = наперсток?,0,takuru,терка,sulvidu,5,2020-05-13_22h08.41.249,words,2020.1.2,Win32,60,,,,,,,,,,,,,,,,,,,,,,,,,left,1.750575,0,12,12,12,1,,,,,,,,,,,,,,,,
,,,,,pentave,колбаса,pentave.wav,хобот,колбаса,качели,black,green,black,pentave = колбаса?,1,enkalu,веер,adiste,5,2020-05-13_22h08.41.249,words,2020.1.2,Win32,60,,,,,,,,,,,,,,,,,,,,,,,,,left,2.74911,0,13,13,13,1,,,,,,,,,,,,,,,,
,,,,,mugalu,свисток,mugalu.wav,пальма,стол,свисток,black,black,green,mugalu = свисток?,1,savere,стрела,sevade,5,2020-05-13_22h08.41.249,words,2020.1.2,Win32,60,,,,,,,,,,,,,,,,,,,,,,,,,left,2.243805,0,14,14,14,1,,,,,,,,,,,,,,,,
,,,,,pikide,качели,pikide.wav,качели,самолет,пистолет,green,black,black,pikide = стол?,0,dinrase,домино,devinde,5,2020-05-13_22h08.41.249,words,2020.1.2,Win32,60,,,,,,,,,,,,,,,,,,,,,,,,,left,1.80037,0,15,15,15,1,,,,,,,,,,,,,,,,
,,,,,abadu,кроссворд,abadu.wav,гвоздь,мельница,кроссворд,black,black,green,abadu = домино?,0,kanvidu,аквариум,abadu,5,2020-05-13_22h08.41.249,words,2020.1.2,Win32,60,,,,,,,,,,,,,,,,,,,,,,,,,right,1.53162,0,16,16,16,1,,,,,,,,,,,,,,,,
,,,,,enveku,микрофон,enveku.wav,пальма,стрела,микрофон,black,black,green,enveku = микрофон?,1,madide,флаг,tivere,5,2020-05-13_22h08.41.249,words,2020.1.2,Win32,60,,,,,,,,,,,,,,,,,,,,,,,,,left,1.95323,0,17,17,17,1,,,,,,,,,,,,,,,,
,,,,,favatu,клубок,favatu.wav,клубок,компас,ведро,green,black,black,favatu = клубок?,1,enkade,точилка,takuru,5,2020-05-13_22h08.41.249,words,2020.1.2,Win32,60,,,,,,,,,,,,,,,,,,,,,,,,,left,3.353735,0,18,18,18,1,,,,,,,,,,,,,,,,
,,,,,tivere,шашлык,tivere.wav,стрела,копилка,шашлык,black,black,green,tivere = шашлык?,1,vembare,костюм,kaltane,5,2020-05-13_22h08.41.249,words,2020.1.2,Win32,60,,,,,,,,,,,,,,,,,,,,,,,,,left,1.981815,0,19,19,19,1,,,,,,,,,,,,,,,,
,,,,,invaltu,намордник,invaltu.wav,домино,намордник,мельница,black,green,black,invaltu = намордник?,1,mugalu,свисток,savere,5,2020-05-13_22h08.41.249,words,2020.1.2,Win32,60,,,,,,,,,,,,,,,,,,,,,,,,,right,2.08665,0,20,20,20,1,,,,,,,,,,,,,,,,
,,,,,savere,стрела,savere.wav,стрела,колбаса,костюм,green,black,black,savere = шприц?,0,sevade,коридор,feranu,5,2020-05-13_22h08.41.249,words,2020.1.2,Win32,60,,,,,,,,,,,,,,,,,,,,,,,,,right,2.20398,0,21,21,21,1,,,,,,,,,,,,,,,,
,,,,,ovarde,конверт,ovarde.wav,компас,конверт,мяч,black,green,black,ovarde = компас?,0,erfate,гранат,beskadu,5,2020-05-13_22h08.41.249,words,2020.1.2,Win32,60,,,,,,,,,,,,,,,,,,,,,,,,,left,2.83268,0,22,22,22,1,,,,,,,,,,,,,,,,
,,,,,erfate,гранат,erfate.wav,гранат,шашлык,удочка,green,black,black,erfate = гранат?,1,beskadu,удочка,tanibu,5,2020-05-13_22h08.41.249,words,2020.1.2,Win32,60,,,,,,,,,,,,,,,,,,,,,,,,,left,2.723835,0,23,23,23,1,,,,,,,,,,,,,,,,
,,,,,panabu,гвоздь,panabu.wav,гвоздь,клубок,самолет,green,black,black,panabu = гвоздь?,1,akastu,шприц,venkere,5,2020-05-13_22h08.41.249,words,2020.1.2,Win32,60,,,,,,,,,,,,,,,,,,,,,,,,,right,3.33523,0,24,24,24,1,,,,,,,,,,,,,,,,
,,,,,akastu,шприц,akastu.wav,одуванчик,флаг,шприц,black,black,green,akastu = самолет?,0,venkere,ведро,aderu,5,2020-05-13_22h08.41.249,words,2020.1.2,Win32,60,,,,,,,,,,,,,,,,,,,,,,,,,right,3.02092,0,25,25,25,1,,,,,,,,,,,,,,,,
,,,,,enkalu,веер,enkalu.wav,шприц,веер,костюм,black,green,black,enkalu = веер?,1,adiste,колокол,enkontu,5,2020-05-13_22h08.41.249,words,2020.1.2,Win32,60,,,,,,,,,,,,,,,,,,,,,,,,,right,2.332625,0,26,26,26,1,,,,,,,,,,,,,,,,
,,,,,dinrase,домино,dinrase.wav,домино,стрела,колокол,green,black,black,dinrase = копилка?,0,devinde,мельница,lornitu,5,2020-05-13_22h08.41.249,words,2020.1.2,Win32,60,,,,,,,,,,,,,,,,,,,,,,,,,right,3.372805,0,27,27,27,1,,,,,,,,,,,,,,,,
,,,,,pakanu,пистолет,pakanu.wav,пистолет,микрофон,одуванчик,green,black,black,pakanu = пистолет?,1,panabu,гвоздь,akastu,5,2020-05-13_22h08.41.249,words,2020.1.2,Win32,60,,,,,,,,,,,,,,,,,,,,,,,,,left,2.09831,0,28,28,28,1,,,,,,,,,,,,,,,,
,,,,,sevade,коридор,sevade.wav,коридор,удочка,роза,green,black,black,sevade = роза?,0,feranu,ремень,pentave,5,2020-05-13_22h08.41.249,words,2020.1.2,Win32,60,,,,,,,,,,,,,,,,,,,,,,,,,right,2.138565,0,29,29,29,1,,,,,,,,,,,,,,,,
,,,,,renape,пальма,renape.wav,пальма,свисток,шприц,green,black,black,renape = пальма?,1,pakanu,пистолет,panabu,5,2020-05-13_22h08.41.249,words,2020.1.2,Win32,60,,,,,,,,,,,,,,,,,,,,,,,,,right,2.406765,0,30,30,30,1,,,,,,,,,,,,,,,,
,,,,,feranu,ремень,feranu.wav,шашлык,маяк,ремень,black,black,green,feranu = ремень?,1,pentave,колбаса,enkalu,5,2020-05-13_22h08.41.249,words,2020.1.2,Win32,60,,,,,,,,,,,,,,,,,,,,,,,,,left,2.452225,0,31,31,31,1,,,,,,,,,,,,,,,,
,,,,,tevone,стол,tevone.wav,намордник,стол,компас,black,green,black,tevone = мельница?,0,senkide,самолет,renape,5,2020-05-13_22h08.41.249,words,2020.1.2,Win32,60,,,,,,,,,,,,,,,,,,,,,,,,,right,2.11719,0,32,32,32,1,,,,,,,,,,,,,,,,
,,,,,sulvidu,утюг,sulvidu.wav,аквариум,стрела,утюг,black,black,green,sulvidu = коридор?,0,tevone,стол,senkide,5,2020-05-13_22h08.41.249,words,2020.1.2,Win32,60,,,,,,,,,,,,,,,,,,,,,,,,,right,3.316145,0,33,33,33,1,,,,,,,,,,,,,,,,
,,,,,trokele,наперсток,trokele.wav,наперсток,коридор,маяк,green,black,black,trokele = стрела?,0,nukene,одуванчик,ovarde,5,2020-05-13_22h08.41.249,words,2020.1.2,Win32,60,,,,,,,,,,,,,,,,,,,,,,,,,left,2.7554,0,34,34,34,1,,,,,,,,,,,,,,,,
,,,,,senkide,самолет,senkide.wav,самолет,конверт,наперсток,green,black,black,senkide = кроссворд?,0,renape,пальма,pakanu,5,2020-05-13_22h08.41.249,words,2020.1.2,Win32,60,,,,,,,,,,,,,,,,,,,,,,,,,right,3.39995,0,35,35,35,1,,,,,,,,,,,,,,,,
,,,,,vembare,костюм,vembare.wav,костюм,маяк,гранат,green,black,black,vembare = костюм?,1,kaltane,роза,pikide,5,2020-05-13_22h08.41.249,words,2020.1.2,Win32,60,,,,,,,,,,,,,,,,,,,,,,,,,left,2.682765,0,36,36,36,1,,,,,,,,,,,,,,,,
,,,,,nukene,одуванчик,nukene.wav,компас,одуванчик,гвоздь,black,green,black,nukene = одуванчик?,1,ovarde,конверт,erfate,5,2020-05-13_22h08.41.249,words,2020.1.2,Win32,60,,,,,,,,,,,,,,,,,,,,,,,,,right,2.9167,0,37,37,37,1,,,,,,,,,,,,,,,,
,,,,,kaltane,роза,kaltane.wav,мельница,роза,коридор,black,green,black,kaltane = качели?,0,pikide,качели,dinrase,5,2020-05-13_22h08.41.249,words,2020.1.2,Win32,60,,,,,,,,,,,,,,,,,,,,,,,,,right,2.56431,0,38,38,38,1,,,,,,,,,,,,,,,,
,,,,,aderu,маяк,aderu.wav,маяк,наперсток,клубок,green,black,black,aderu = ведро?,0,larantu,компас,enveku,5,2020-05-13_22h08.41.249,words,2020.1.2,Win32,60,,,,,,,,,,,,,,,,,,,,,,,,,left,2.78307,0,39,39,39,1,,,,,,,,,,,,,,,,
,,,,,kanvidu,аквариум,kanvidu.wav,свисток,аквариум,конверт,black,green,black,kanvidu = аквариум?,1,abadu,кроссворд,kanvidu,5,2020-05-13_22h08.41.249,words,2020.1.2,Win32,60,,,,,,,,,,,,,,,,,,,,,,,,,,,,,,,,7,,,0,0,0,0,1,,,,,,,,
,,,,,larantu,компас,larantu.wav,компас,клубок,костыль,green,black,black,larantu = утюг?,0,enveku,микрофон,madide,5,2020-05-13_22h08.41.249,words,2020.1.2,Win32,60,,,,,,,,,,,,,,,,,,,,,,,,,,,,,,,,7,,"[""e"",""v"",""e"",""n"",""t"",""r"",""u""]",0,1,1,1,1,"[2.133990000002086,3.2319750000024214,3.515800000051968,3.7985950000584126,4.648280000081286,6.725670000072569,6.909305000095628]",,,,,,,
,,,,,enkontu,мяч,enkontu.wav,терка,гранат,мяч,black,black,green,enkontu = мяч?,1,maviru,костыль,invaltu,5,2020-05-13_22h08.41.249,words,2020.1.2,Win32,60,,,,,,,,,,,,,,,,,,,,,,,,,,,,,,,,7,,,0,2,2,2,1,,,,,,,,
,,,,,venkere,ведро,venkere.wav,ведро,костюм,костыль,green,black,black,venkere = терка?,0,aderu,маяк,larantu,5,2020-05-13_22h08.41.249,words,2020.1.2,Win32,60,,,,,,,,,,,,,,,,,,,,,,,,,,,,,,,,7,,,0,3,3,3,1,,,,,,,,
,,,,,tanibu,хобот,tanibu.wav,точилка,роза,хобот,black,black,green,tanibu = хобот?,1,trokele,наперсток,nukene,5,2020-05-13_22h08.41.249,words,2020.1.2,Win32,60,,,,,,,,,,,,,,,,,,,,,,,,,,,,,,,,7,,"[""t"",""e"",""r"",""e"",""n"",""u""]",0,4,4,4,1,"[3.472760000033304,4.04308500001207,4.232710000011139,4.382704999996349,4.57425000006333,4.866269999998622]",,,,,,,
,,,,,lornitu,копилка,lornitu.wav,копилка,веер,шашлык,green,black,black,lornitu = маяк?,0,favatu,клубок,enkade,5,2020-05-13_22h08.41.249,words,2020.1.2,Win32,60,,,,,,,,,,,,,,,,,,,,,,,,,,,,,,,,7,,"[""f"",""a"",""v"",""i"",""t"",""u""]",0,5,5,5,1,"[2.59402499999851,2.836860000039451,3.5011650000233203,3.774375000037253,4.1596550000831485,4.364999999990687]",,,,,,,
,,,,,devinde,мельница,devinde.wav,аквариум,ремень,мельница,black,black,green,devinde = конверт?,0,lornitu,копилка,favatu,5,2020-05-13_22h08.41.249,words,2020.1.2,Win32,60,,,,,,,,,,,,,,,,,,,,,,,,,,,,,,,,7,,"[""k"",""o"",""p"",""i"",""l"",""k"",""a""]",0,6,6,6,1,"[3.1687999999849126,3.2989049999741837,3.383350000018254,3.669755000039004,4.385729999979958,4.655715000000782,4.853155000018887]",,,,,,,
,,,,,takuru,терка,takuru.wav,качели,терка,домино,black,green,black,takuru = точилка?,0,sulvidu,утюг,tevone,5,2020-05-13_22h08.41.249,words,2020.1.2,Win32,60,,,,,,,,,,,,,,,,,,,,,,,,,,,,,,,,7,,"[""f"",""r""]",0,7,7,7,1,"[6.2169850000645965,6.739700000034645]",,,,,,,
,,,,,adiste,колокол,adiste.wav,микрофон,веер,колокол,black,black,green,adiste = колокол?,1,enkontu,мяч,maviru,5,2020-05-13_22h08.41.249,words,2020.1.2,Win32,60,,,,,,,,,,,,,,,,,,,,,,,,,,,,,,,,7,,"[""f"",""u"",""c"",""k""]",0,8,8,8,1,"[6.00135500007309,6.378105000010692,6.584640000015497,6.719535000040196]",,,,,,,
,,,,,maviru,костыль,maviru.wav,пальма,кроссворд,костыль,black,black,green,maviru = костыль?,1,invaltu,намордник,mugalu,5,2020-05-13_22h08.41.249,words,2020.1.2,Win32,60,,,,,,,,,,,,,,,,,,,,,,,,,,,,,,,,7,,,0,9,9,9,1,,,,,,,,
,,,,,madide,флаг,madide.wav,стрела,ремень,флаг,black,black,green,madide = флаг?,1,tivere,шашлык,vembare,5,2020-05-13_22h08.41.249,words,2020.1.2,Win32,60,,,,,,,,,,,,,,,,,,,,,,,,,,,,,,,,7,,"[""t"",""i""]",0,10,10,10,1,"[5.255950000020675,6.9556200000224635]",,,,,,,
,,,,,beskadu,удочка,beskadu.wav,мяч,утюг,удочка,black,black,green,beskadu = удочка?,1,tanibu,хобот,trokele,5,2020-05-13_22h08.41.249,words,2020.1.2,Win32,60,,,,,,,,,,,,,,,,,,,,,,,,,,,,,,,,7,,"[""t"",""a"",""n"",""i"",""b"",""u""]",0,11,11,11,1,"[4.299254999961704,4.875334999989718,5.122910000034608,5.232519999961369,5.973454999970272,6.196014999994077]",,,,,,,
,,,,,enkade,точилка,enkade.wav,шашлык,свисток,точилка,black,black,green,enkade = наперсток?,0,takuru,терка,sulvidu,5,2020-05-13_22h08.41.249,words,2020.1.2,Win32,60,,,,,,,,,,,,,,,,,,,,,,,,,,,,,,,,7,,"[""t"",""e""]",0,12,12,12,1,"[2.6767900000559166,4.650050000054762]",,,,,,,
,,,,,pentave,колбаса,pentave.wav,хобот,колбаса,качели,black,green,black,pentave = колбаса?,1,enkalu,веер,adiste,5,2020-05-13_22h08.41.249,words,2020.1.2,Win32,60,,,,,,,,,,,,,,,,,,,,,,,,,,,,,,,,7,,,0,13,13,13,1,,,,,,,,
,,,,,mugalu,свисток,mugalu.wav,пальма,стол,свисток,black,black,green,mugalu = свисток?,1,savere,стрела,sevade,5,2020-05-13_22h08.41.249,words,2020.1.2,Win32,60,,,,,,,,,,,,,,,,,,,,,,,,,,,,,,,,7,,"[""t"",""r"",""o"",""k"",""a"",""n"",""e""]",0,14,14,14,1,"[3.581815000041388,3.9003900000825524,4.320640000049025,4.581179999979213,4.755260000005364,5.131885000038892,5.532575000077486]",,,,,,,
,,,,,pikide,качели,pikide.wav,качели,самолет,пистолет,green,black,black,pikide = стол?,0,dinrase,домино,devinde,5,2020-05-13_22h08.41.249,words,2020.1.2,Win32,60,,,,,,,,,,,,,,,,,,,,,,,,,,,,,,,,7,,"[""d"",""i"",""n"",""t"",""e"",""s"",""t"",""r""]",0,15,15,15,1,"[1.4440700000850484,1.6225000000558794,1.8042000000132248,5.550165000022389,5.716439999989234,6.050084999995306,6.339340000064112,6.82233500003349]",,,,,,,
,,,,,abadu,кроссворд,abadu.wav,гвоздь,мельница,кроссворд,black,black,green,abadu = домино?,0,kanvidu,аквариум,abadu,5,2020-05-13_22h08.41.249,words,2020.1.2,Win32,60,,,,,,,,,,,,,,,,,,,,,,,,,,,,,,,,7,,"[""a"",""k""]",0,16,16,16,1,"[4.776304999948479,5.174374999944121]",,,,,,,
,,,,,enveku,микрофон,enveku.wav,пальма,стрела,микрофон,black,black,green,enveku = микрофон?,1,madide,флаг,tivere,5,2020-05-13_22h08.41.249,words,2020.1.2,Win32,60,,,,,,,,,,,,,,,,,,,,,,,,,,,,,,,,6.672475,f,"[""f"",""a"",""l"",""g"",""l"",""a"",""h"",""d"",""w"",""n"",""d"",""return""]",0,17,17,17,1,"[3.1501200000056997,3.2994650000473484,3.3006550000282004,4.192150000017136,4.857875000103377,5.303690000087954,5.600475000101142,5.765720000024885,5.917525000055321,6.21124500001315,6.469920000061393,6.6724750000284985]",,,,,,,
,,,,,favatu,клубок,favatu.wav,клубок,компас,ведро,green,black,black,favatu = клубок?,1,enkade,точилка,takuru,5,2020-05-13_22h08.41.249,words,2020.1.2,Win32,60,,,,,,,,,,,,,,,,,,,,,,,,,,,,,,,,7,,"[""d"",""r"",""o"",""c"",""h"",""i"",""l"",""k"",""a""]",0,18,18,18,1,"[2.541624999954365,2.890205000061542,3.349000000045635,3.7156149999937043,4.139549999963492,4.559405000065453,4.782789999968372,5.00488000002224,5.161154999979772]",,,,,,,
,,,,,tivere,шашлык,tivere.wav,стрела,копилка,шашлык,black,black,green,tivere = шашлык?,1,vembare,костюм,kaltane,5,2020-05-13_22h08.41.249,words,2020.1.2,Win32,60,,,,,,,,,,,,,,,,,,,,,,,,,,,,,,,,7,,,0,19,19,19,1,,,,,,,,
,,,,,invaltu,намордник,invaltu.wav,домино,намордник,мельница,black,green,black,invaltu = намордник?,1,mugalu,свисток,savere,5,2020-05-13_22h08.41.249,words,2020.1.2,Win32,60,,,,,,,,,,,,,,,,,,,,,,,,,,,,,,,,7,,,0,20,20,20,1,,,,,,,,
,,,,,savere,стрела,savere.wav,стрела,колбаса,костюм,green,black,black,savere = шприц?,0,sevade,коридор,feranu,5,2020-05-13_22h08.41.249,words,2020.1.2,Win32,60,,,,,,,,,,,,,,,,,,,,,,,,,,,,,,,,7,,"[""v"",""backspace""]",0,21,21,21,1,"[0.18738000001758337,0.7862300000851974]",,,,,,,
,,,,,ovarde,конверт,ovarde.wav,компас,конверт,мяч,black,green,black,ovarde = компас?,0,erfate,гранат,beskadu,5,2020-05-13_22h08.41.249,words,2020.1.2,Win32,60,,,,,,,,,,,,,,,,,,,,,,,,,,,,,,,,7,,"[""e"",""f"",""e"",""r"",""e""]",0,22,22,22,1,"[3.3108899999642745,5.486230000038631,6.046044999966398,6.20203499996569,6.314505000016652]",,,,,,,
,,,,,erfate,гранат,erfate.wav,гранат,шашлык,удочка,green,black,black,erfate = гранат?,1,beskadu,удочка,tanibu,5,2020-05-13_22h08.41.249,words,2020.1.2,Win32,60,,,,,,,,,,,,,,,,,,,,,,,,,,,,,,,,7,,"[""h"",""u"",""u"",""d""]",0,23,23,23,1,"[4.574089999892749,4.668184999958612,6.025784999947064,6.926729999948293]",,,,,,,
,,,,,panabu,гвоздь,panabu.wav,гвоздь,клубок,самолет,green,black,black,panabu = гвоздь?,1,akastu,шприц,venkere,5,2020-05-13_22h08.41.249,words,2020.1.2,Win32,60,,,,,,,,,,,,,,,,,,,,,,,,,,,,,,,,7,,"[""a"",""d"",""i"",""s"",""t"",""e""]",0,24,24,24,1,"[2.4162550000473857,2.6507400000700727,2.974815000081435,3.3169350000098348,3.615525000030175,3.815455000032671]",,,,,,,
,,,,,akastu,шприц,akastu.wav,одуванчик,флаг,шприц,black,black,green,akastu = самолет?,0,venkere,ведро,aderu,5,2020-05-13_22h08.41.249,words,2020.1.2,Win32,60,,,,,,,,,,,,,,,,,,,,,,,,,,,,,,,,7,,"[""k"",""a"",""r"",""i"",""n"",""a""]",0,25,25,25,1,"[5.577969999983907,5.821044999989681,6.199385000043549,6.453089999966323,6.681790000060573,6.8042249999707565]",,,,,,,
,,,,,enkalu,веер,enkalu.wav,шприц,веер,костюм,black,green,black,enkalu = веер?,1,adiste,колокол,enkontu,5,2020-05-13_22h08.41.249,words,2020.1.2,Win32,60,,,,,,,,,,,,,,,,,,,,,,,,,,,,,,,,7,,"[""a"",""d"",""i""]",0,26,26,26,1,"[3.3711349999066442,3.4553699999814853,3.7198499999940395]",,,,,,,
,,,,,dinrase,домино,dinrase.wav,домино,стрела,колокол,green,black,black,dinrase = копилка?,0,devinde,мельница,lornitu,5,2020-05-13_22h08.41.249,words,2020.1.2,Win32,60,,,,,,,,,,,,,,,,,,,,,,,,,,,,,,,,7,,,0,27,27,27,1,,,,,,,,
,,,,,pakanu,пистолет,pakanu.wav,пистолет,микрофон,одуванчик,green,black,black,pakanu = пистолет?,1,panabu,гвоздь,akastu,5,2020-05-13_22h08.41.249,words,2020.1.2,Win32,60,,,,,,,,,,,,,,,,,,,,,,,,,,,,,,,,7,,"[""g"",""v"",""o"",""z"",""d""]",0,28,28,28,1,"[4.364000000059605,4.986505000037141,5.380795000004582,5.881874999962747,6.517905000015162]",,,,,,,
,,,,,sevade,коридор,sevade.wav,коридор,удочка,роза,green,black,black,sevade = роза?,0,feranu,ремень,pentave,5,2020-05-13_22h08.41.249,words,2020.1.2,Win32,60,,,,,,,,,,,,,,,,,,,,,,,,,,,,,,,,7,,"[""e"",""f"",""e"",""r"",""e""]",0,29,29,29,1,"[4.9491449999623,5.891775000025518,6.16003999998793,6.353084999951534,6.470669999951497]",,,,,,,
,,,,,renape,пальма,renape.wav,пальма,свисток,шприц,green,black,black,renape = пальма?,1,pakanu,пистолет,panabu,5,2020-05-13_22h08.41.249,words,2020.1.2,Win32,60,,,,,,,,,,,,,,,,,,,,,,,,,,,,,,,,7,,"[""p"",""i"",""k"",""a"",""b"",""u""]",0,30,30,30,1,"[1.8316150000318885,2.0428349999710917,2.2688449999550357,2.4647050000494346,3.2747700000181794,3.4490549999754876]",,,,,,,
,,,,,feranu,ремень,feranu.wav,шашлык,маяк,ремень,black,black,green,feranu = ремень?,1,pentave,колбаса,enkalu,5,2020-05-13_22h08.41.249,words,2020.1.2,Win32,60,,,,,,,,,,,,,,,,,,,,,,,,,,,,,,,,7,,"[""p"",""i"",""k"",""a"",""b"",""u""]",0,31,31,31,1,"[2.744704999960959,2.841474999906495,3.874044999945909,4.052279999945313,4.344329999992624,4.675579999922775]",,,,,,,
,,,,,tevone,стол,tevone.wav,намордник,стол,компас,black,green,black,tevone = мельница?,0,senkide,самолет,renape,5,2020-05-13_22h08.41.249,words,2020.1.2,Win32,60,,,,,,,,,,,,,,,,,,,,,,,,,,,,,,,,7,,"[""s"",""a"",""n"",""t"",""i""]",0,32,32,32,1,"[2.1527149999747053,2.7104299999773502,3.4111900000134483,6.706310000037774,6.867005000007339]",,,,,,,
,,,,,sulvidu,утюг,sulvidu.wav,аквариум,стрела,утюг,black,black,green,sulvidu = коридор?,0,tevone,стол,senkide,5,2020-05-13_22h08.41.249,words,2020.1.2,Win32,60,,,,,,,,,,,,,,,,,,,,,,,,,,,,,,,,7,,,0,33,33,33,1,,,,,,,,
,,,,,trokele,наперсток,trokele.wav,наперсток,коридор,маяк,green,black,black,trokele = стрела?,0,nukene,одуванчик,ovarde,5,2020-05-13_22h08.41.249,words,2020.1.2,Win32,60,,,,,,,,,,,,,,,,,,,,,,,,,,,,,,,,7,,"[""o"",""d"",""u"",""v"",""a"",""n""]",0,34,34,34,1,"[4.554905000026338,4.6853949999203905,4.8022600000258535,5.876384999952279,5.970459999982268,6.266330000013113]",,,,,,,
,,,,,senkide,самолет,senkide.wav,самолет,конверт,наперсток,green,black,black,senkide = кроссворд?,0,renape,пальма,pakanu,5,2020-05-13_22h08.41.249,words,2020.1.2,Win32,60,,,,,,,,,,,,,,,,,,,,,,,,,,,,,,,,7,,"[""p"",""a"",""l"",""m"",""a""]",0,35,35,35,1,"[2.087195000029169,2.5323099999222904,2.6890199999324977,3.366304999915883,3.499324999982491]",,,,,,,
,,,,,vembare,костюм,vembare.wav,костюм,маяк,гранат,green,black,black,vembare = костюм?,1,kaltane,роза,pikide,5,2020-05-13_22h08.41.249,words,2020.1.2,Win32,60,,,,,,,,,,,,,,,,,,,,,,,,,,,,,,,,7,,"[""r"",""o"",""x"",""z"",""a"",""a"",""a"",""a"",""w"",""d"",""w"",""o"",""i"",""d"",""m""]",0,36,36,36,1,"[2.2255700000096112,2.315709999995306,2.999764999956824,3.2846750000026077,3.649154999991879,3.850709999911487,4.011309999972582,4.241244999924675,4.33289999992121,4.368464999948628,4.527294999919832,4.65750999993179,4.709745000000112,4.879089999943972,4.886979999952018]",,,,,,,
,,,,,nukene,одуванчик,nukene.wav,компас,одуванчик,гвоздь,black,green,black,nukene = одуванчик?,1,ovarde,конверт,erfate,5,2020-05-13_22h08.41.249,words,2020.1.2,Win32,60,,,,,,,,,,,,,,,,,,,,,,,,,,,,,,,,7,,,0,37,37,37,1,,,,,,,,
,,,,,kaltane,роза,kaltane.wav,мельница,роза,коридор,black,green,black,kaltane = качели?,0,pikide,качели,dinrase,5,2020-05-13_22h08.41.249,words,2020.1.2,Win32,60,,,,,,,,,,,,,,,,,,,,,,,,,,,,,,,,7,,,0,38,38,38,1,,,,,,,,
,,,,,aderu,маяк,aderu.wav,маяк,наперсток,клубок,green,black,black,aderu = ведро?,0,larantu,компас,enveku,5,2020-05-13_22h08.41.249,words,2020.1.2,Win32,60,,,,,,,,,,,,,,,,,,,,,,,,,,,,,,,,7,,,0,39,39,39,1,,,,,,,,
,,,,,kanvidu,аквариум,kanvidu.wav,свисток,аквариум,конверт,black,green,black,kanvidu = аквариум?,1,abadu,кроссворд,kanvidu,5,2020-05-13_22h08.41.249,words,2020.1.2,Win32,60,,,,,,,,,,,,,,,,,,,,,,,,,,,,,,,,,,,,,,,,,right,2.7928,0,0,0,0,1
,,,,,larantu,компас,larantu.wav,компас,клубок,костыль,green,black,black,larantu = утюг?,0,enveku,микрофон,madide,5,2020-05-13_22h08.41.249,words,2020.1.2,Win32,60,,,,,,,,,,,,,,,,,,,,,,,,,,,,,,,,,,,,,,,,,right,2.85055,0,1,1,1,1
,,,,,enkontu,мяч,enkontu.wav,терка,гранат,мяч,black,black,green,enkontu = мяч?,1,maviru,костыль,invaltu,5,2020-05-13_22h08.41.249,words,2020.1.2,Win32,60,,,,,,,,,,,,,,,,,,,,,,,,,,,,,,,,,,,,,,,,,right,1.10991,0,2,2,2,1
,,,,,venkere,ведро,venkere.wav,ведро,костюм,костыль,green,black,black,venkere = терка?,0,aderu,маяк,larantu,5,2020-05-13_22h08.41.249,words,2020.1.2,Win32,60,,,,,,,,,,,,,,,,,,,,,,,,,,,,,,,,,,,,,,,,,right,1.18802,0,3,3,3,1
,,,,,tanibu,хобот,tanibu.wav,точилка,роза,хобот,black,black,green,tanibu = хобот?,1,trokele,наперсток,nukene,5,2020-05-13_22h08.41.249,words,2020.1.2,Win32,60,,,,,,,,,,,,,,,,,,,,,,,,,,,,,,,,,,,,,,,,,right,0.784195,0,4,4,4,1
,,,,,lornitu,копилка,lornitu.wav,копилка,веер,шашлык,green,black,black,lornitu = маяк?,0,favatu,клубок,enkade,5,2020-05-13_22h08.41.249,words,2020.1.2,Win32,60,,,,,,,,,,,,,,,,,,,,,,,,,,,,,,,,,,,,,,,,,right,0.360545,0,5,5,5,1
,,,,,devinde,мельница,devinde.wav,аквариум,ремень,мельница,black,black,green,devinde = конверт?,0,lornitu,копилка,favatu,5,2020-05-13_22h08.41.249,words,2020.1.2,Win32,60,,,,,,,,,,,,,,,,,,,,,,,,,,,,,,,,,,,,,,,,,right,0.2291,0,6,6,6,1
,,,,,takuru,терка,takuru.wav,качели,терка,домино,black,green,black,takuru = точилка?,0,sulvidu,утюг,tevone,5,2020-05-13_22h08.41.249,words,2020.1.2,Win32,60,,,,,,,,,,,,,,,,,,,,,,,,,,,,,,,,,,,,,,,,,right,3.61135,0,7,7,7,1
,,,,,adiste,колокол,adiste.wav,микрофон,веер,колокол,black,black,green,adiste = колокол?,1,enkontu,мяч,maviru,5,2020-05-13_22h08.41.249,words,2020.1.2,Win32,60,,,,,,,,,,,,,,,,,,,,,,,,,,,,,,,,,,,,,,,,,right,2.31848,0,8,8,8,1
,,,,,maviru,костыль,maviru.wav,пальма,кроссворд,костыль,black,black,green,maviru = костыль?,1,invaltu,намордник,mugalu,5,2020-05-13_22h08.41.249,words,2020.1.2,Win32,60,,,,,,,,,,,,,,,,,,,,,,,,,,,,,,,,,,,,,,,,,right,2.31369,0,9,9,9,1
,,,,,madide,флаг,madide.wav,стрела,ремень,флаг,black,black,green,madide = флаг?,1,tivere,шашлык,vembare,5,2020-05-13_22h08.41.249,words,2020.1.2,Win32,60,,,,,,,,,,,,,,,,,,,,,,,,,,,,,,,,,,,,,,,,,right,2.04326,0,10,10,10,1
,,,,,beskadu,удочка,beskadu.wav,мяч,утюг,удочка,black,black,green,beskadu = удочка?,1,tanibu,хобот,trokele,5,2020-05-13_22h08.41.249,words,2020.1.2,Win32,60,,,,,,,,,,,,,,,,,,,,,,,,,,,,,,,,,,,,,,,,,right,2.563145,0,11,11,11,1
,,,,,enkade,точилка,enkade.wav,шашлык,свисток,точилка,black,black,green,enkade = наперсток?,0,takuru,терка,sulvidu,5,2020-05-13_22h08.41.249,words,2020.1.2,Win32,60,,,,,,,,,,,,,,,,,,,,,,,,,,,,,,,,,,,,,,,,,,,0,12,12,12,1
,,,,,pentave,колбаса,pentave.wav,хобот,колбаса,качели,black,green,black,pentave = колбаса?,1,enkalu,веер,adiste,5,2020-05-13_22h08.41.249,words,2020.1.2,Win32,60,,,,,,,,,,,,,,,,,,,,,,,,,,,,,,,,,,,,,,,,,right,1.652855,0,13,13,13,1
,,,,,mugalu,свисток,mugalu.wav,пальма,стол,свисток,black,black,green,mugalu = свисток?,1,savere,стрела,sevade,5,2020-05-13_22h08.41.249,words,2020.1.2,Win32,60,,,,,,,,,,,,,,,,,,,,,,,,,,,,,,,,,,,,,,,,,right,2.810865,0,14,14,14,1
,,,,,pikide,качели,pikide.wav,качели,самолет,пистолет,green,black,black,pikide = стол?,0,dinrase,домино,devinde,5,2020-05-13_22h08.41.249,words,2020.1.2,Win32,60,,,,,,,,,,,,,,,,,,,,,,,,,,,,,,,,,,,,,,,,,right,2.42891,0,15,15,15,1
,,,,,abadu,кроссворд,abadu.wav,гвоздь,мельница,кроссворд,black,black,green,abadu = домино?,0,kanvidu,аквариум,abadu,5,2020-05-13_22h08.41.249,words,2020.1.2,Win32,60,,,,,,,,,,,,,,,,,,,,,,,,,,,,,,,,,,,,,,,,,,,0,16,16,16,1
,,,,,enveku,микрофон,enveku.wav,пальма,стрела,микрофон,black,black,green,enveku = микрофон?,1,madide,флаг,tivere,5,2020-05-13_22h08.41.249,words,2020.1.2,Win32,60,,,,,,,,,,,,,,,,,,,,,,,,,,,,,,,,,,,,,,,,,right,3.849675,0,17,17,17,1
,,,,,favatu,клубок,favatu.wav,клубок,компас,ведро,green,black,black,favatu = клубок?,1,enkade,точилка,takuru,5,2020-05-13_22h08.41.249,words,2020.1.2,Win32,60,,,,,,,,,,,,,,,,,,,,,,,,,,,,,,,,,,,,,,,,,right,1.7805,0,18,18,18,1
,,,,,tivere,шашлык,tivere.wav,стрела,копилка,шашлык,black,black,green,tivere = шашлык?,1,vembare,костюм,kaltane,5,2020-05-13_22h08.41.249,words,2020.1.2,Win32,60,,,,,,,,,,,,,,,,,,,,,,,,,,,,,,,,,,,,,,,,,left,2.57246,0,19,19,19,1
,,,,,invaltu,намордник,invaltu.wav,домино,намордник,мельница,black,green,black,invaltu = намордник?,1,mugalu,свисток,savere,5,2020-05-13_22h08.41.249,words,2020.1.2,Win32,60,,,,,,,,,,,,,,,,,,,,,,,,,,,,,,,,,,,,,,,,,right,2.112145,0,20,20,20,1
,,,,,savere,стрела,savere.wav,стрела,колбаса,костюм,green,black,black,savere = шприц?,0,sevade,коридор,feranu,5,2020-05-13_22h08.41.249,words,2020.1.2,Win32,60,,,,,,,,,,,,,,,,,,,,,,,,,,,,,,,,,,,,,,,,,right,2.21553,0,21,21,21,1
,,,,,ovarde,конверт,ovarde.wav,компас,конверт,мяч,black,green,black,ovarde = компас?,0,erfate,гранат,beskadu,5,2020-05-13_22h08.41.249,words,2020.1.2,Win32,60,,,,,,,,,,,,,,,,,,,,,,,,,,,,,,,,,,,,,,,,,right,2.395125,0,22,22,22,1
,,,,,erfate,гранат,erfate.wav,гранат,шашлык,удочка,green,black,black,erfate = гранат?,1,beskadu,удочка,tanibu,5,2020-05-13_22h08.41.249,words,2020.1.2,Win32,60,,,,,,,,,,,,,,,,,,,,,,,,,,,,,,,,,,,,,,,,,left,3.7287,0,23,23,23,1
,,,,,panabu,гвоздь,panabu.wav,гвоздь,клубок,самолет,green,black,black,panabu = гвоздь?,1,akastu,шприц,venkere,5,2020-05-13_22h08.41.249,words,2020.1.2,Win32,60,,,,,,,,,,,,,,,,,,,,,,,,,,,,,,,,,,,,,,,,,right,2.76069,0,24,24,24,1
,,,,,akastu,шприц,akastu.wav,одуванчик,флаг,шприц,black,black,green,akastu = самолет?,0,venkere,ведро,aderu,5,2020-05-13_22h08.41.249,words,2020.1.2,Win32,60,,,,,,,,,,,,,,,,,,,,,,,,,,,,,,,,,,,,,,,,,right,2.864285,0,25,25,25,1
,,,,,enkalu,веер,enkalu.wav,шприц,веер,костюм,black,green,black,enkalu = веер?,1,adiste,колокол,enkontu,5,2020-05-13_22h08.41.249,words,2020.1.2,Win32,60,,,,,,,,,,,,,,,,,,,,,,,,,,,,,,,,,,,,,,,,,right,2.311715,0,26,26,26,1
,,,,,dinrase,домино,dinrase.wav,домино,стрела,колокол,green,black,black,dinrase = копилка?,0,devinde,мельница,lornitu,5,2020-05-13_22h08.41.249,words,2020.1.2,Win32,60,,,,,,,,,,,,,,,,,,,,,,,,,,,,,,,,,,,,,,,,,right,1.895635,0,27,27,27,1
,,,,,pakanu,пистолет,pakanu.wav,пистолет,микрофон,одуванчик,green,black,black,pakanu = пистолет?,1,panabu,гвоздь,akastu,5,2020-05-13_22h08.41.249,words,2020.1.2,Win32,60,,,,,,,,,,,,,,,,,,,,,,,,,,,,,,,,,,,,,,,,,right,2.470115,0,28,28,28,1
,,,,,sevade,коридор,sevade.wav,коридор,удочка,роза,green,black,black,sevade = роза?,0,feranu,ремень,pentave,5,2020-05-13_22h08.41.249,words,2020.1.2,Win32,60,,,,,,,,,,,,,,,,,,,,,,,,,,,,,,,,,,,,,,,,,right,2.687145,0,29,29,29,1
,,,,,renape,пальма,renape.wav,пальма,свисток,шприц,green,black,black,renape = пальма?,1,pakanu,пистолет,panabu,5,2020-05-13_22h08.41.249,words,2020.1.2,Win32,60,,,,,,,,,,,,,,,,,,,,,,,,,,,,,,,,,,,,,,,,,right,0.692665,0,30,30,30,1
,,,,,feranu,ремень,feranu.wav,шашлык,маяк,ремень,black,black,green,feranu = ремень?,1,pentave,колбаса,enkalu,5,2020-05-13_22h08.41.249,words,2020.1.2,Win32,60,,,,,,,,,,,,,,,,,,,,,,,,,,,,,,,,,,,,,,,,,right,2.04786,0,31,31,31,1
,,,,,tevone,стол,tevone.wav,намордник,стол,компас,black,green,black,tevone = мельница?,0,senkide,самолет,renape,5,2020-05-13_22h08.41.249,words,2020.1.2,Win32,60,,,,,,,,,,,,,,,,,,,,,,,,,,,,,,,,,,,,,,,,,right,1.83006,0,32,32,32,1
,,,,,sulvidu,утюг,sulvidu.wav,аквариум,стрела,утюг,black,black,green,sulvidu = коридор?,0,tevone,стол,senkide,5,2020-05-13_22h08.41.249,words,2020.1.2,Win32,60,,,,,,,,,,,,,,,,,,,,,,,,,,,,,,,,,,,,,,,,,,,0,33,33,33,1
,,,,,trokele,наперсток,trokele.wav,наперсток,коридор,маяк,green,black,black,trokele = стрела?,0,nukene,одуванчик,ovarde,5,2020-05-13_22h08.41.249,words,2020.1.2,Win32,60,,,,,,,,,,,,,,,,,,,,,,,,,,,,,,,,,,,,,,,,,left,2.06368,0,34,34,34,1
,,,,,senkide,самолет,senkide.wav,самолет,конверт,наперсток,green,black,black,senkide = кроссворд?,0,renape,пальма,pakanu,5,2020-05-13_22h08.41.249,words,2020.1.2,Win32,60,,,,,,,,,,,,,,,,,,,,,,,,,,,,,,,,,,,,,,,,,right,1.305995,0,35,35,35,1
,,,,,vembare,костюм,vembare.wav,костюм,маяк,гранат,green,black,black,vembare = костюм?,1,kaltane,роза,pikide,5,2020-05-13_22h08.41.249,words,2020.1.2,Win32,60,,,,,,,,,,,,,,,,,,,,,,,,,,,,,,,,,,,,,,,,,right,1.36442,0,36,36,36,1
,,,,,nukene,одуванчик,nukene.wav,компас,одуванчик,гвоздь,black,green,black,nukene = одуванчик?,1,ovarde,конверт,erfate,5,2020-05-13_22h08.41.249,words,2020.1.2,Win32,60,,,,,,,,,,,,,,,,,,,,,,,,,,,,,,,,,,,,,,,,,left,1.948135,0,37,37,37,1
,,,,,kaltane,роза,kaltane.wav,мельница,роза,коридор,black,green,black,kaltane = качели?,0,pikide,качели,dinrase,5,2020-05-13_22h08.41.249,words,2020.1.2,Win32,60,,,,,,,,,,,,,,,,,,,,,,,,,,,,,,,,,,,,,,,,,right,2.96204,0,38,38,38,1
,,,,,aderu,маяк,aderu.wav,маяк,наперсток,клубок,green,black,black,aderu = ведро?,0,larantu,компас,enveku,5,2020-05-13_22h08.41.249,words,2020.1.2,Win32,60,,,,,,,,,,,,,,,,,,,,,,,,,,,,,,,,,,,,,,,,,right,2.25169,0,39,39,39,1
