trials_2.thisRepN,trials_2.thisTrialN,trials_2.thisN,trials_2.thisIndex,trials_2.ran,AL,L1,sound_path,AFC1,AFC2,AFC3,AFC1_color,AFC2_color,AFC3_color,recognition_text,recognition_correctness,recall_AL,recall_L1,SEM_AL,variant,date,expName,psychopyVersion,OS,frameRate,key_resp_2.keys,key_resp_2.rt,trials_3.thisRepN,trials_3.thisTrialN,trials_3.thisN,trials_3.thisIndex,trials_3.ran,key_resp.keys,key_resp.rt,recall_rt,recall_text,trials.thisRepN,trials.thisTrialN,trials.thisN,trials.thisIndex,trials.ran,trials_4.thisRepN,trials_4.thisTrialN,trials_4.thisN,trials_4.thisIndex,trials_4.ran,rows,key_resp_10.keys,key_resp_10.rt,key_resp_3.keys,key_resp_3.rt,trials_5.thisRepN,trials_5.thisTrialN,trials_5.thisN,trials_5.thisIndex,trials_5.ran,recall_test_rt,recall_test_text,key_resp_4.keys,key_resp_4.rt,trials_6.thisRepN,trials_6.thisTrialN,trials_6.thisN,trials_6.thisIndex,trials_6.ran,key_resp_5.keys,key_resp_5.rt,trials_7.thisRepN,trials_7.thisTrialN,trials_7.thisN,trials_7.thisIndex,trials_7.ran
0,0,0,0,1,morvidu,точилка,morvidu.wav,шашлык,точилка,свисток,black,green,black,morvidu = точилка?,1,sankadu,качели,bokente,2,2020-05-13_17h48.34.163,words,2020.1.2,Win32,60,,,,,,,,,,,,,,,,,,,,,,,,,,,,,,,,,,,,,,,,,,,,,,,
0,1,1,1,1,kambipu,стол,kambipu.wav,стол,компас,намордник,green,black,black,kambipu = кроссворд?,0,potabu,кроссворд,felkure,2,2020-05-13_17h48.34.163,words,2020.1.2,Win32,60,,,,,,,,,,,,,,,,,,,,,,,,,,,,,,,,,,,,,,,,,,,,,,,
0,2,2,2,1,limate,хобот,limate.wav,хобот,роза,точилка,green,black,black,limate = хобот?,1,tuvene,компас,ediste,2,2020-05-13_17h48.34.163,words,2020.1.2,Win32,60,,,,,,,,,,,,,,,,,,,,,,,,,,,,,,,,,,,,,,,,,,,,,,,
0,3,3,3,1,nevetu,колбаса,nevetu.wav,колбаса,качели,хобот,green,black,black,nevetu = маяк?,0,derartu,стрела,rantare,2,2020-05-13_17h48.34.163,words,2020.1.2,Win32,60,,,,,,,,,,,,,,,,,,,,,,,,,,,,,,,,,,,,,,,,,,,,,,,
0,4,4,4,1,vortule,намордник,vortule.wav,намордник,мельница,домино,green,black,black,vortule = намордник?,1,kavitu,мельница,kankeru,2,2020-05-13_17h48.34.163,words,2020.1.2,Win32,60,,,,,,,,,,,,,,,,,,,,,,,,,,,,,,,,,,,,,,,,,,,,,,,
0,5,5,5,1,tekuru,костюм,tekuru.wav,маяк,гранат,костюм,black,black,green,tekuru = мельница?,0,farimu,копилка,enkene,2,2020-05-13_17h48.34.163,words,2020.1.2,Win32,60,,,,,,,,,,,,,,,,,,,,,,,,,,,,,,,,,,,,,,,,,,,,,,,
0,6,6,6,1,kovaru,ведро,kovaru.wav,костыль,ведро,костюм,black,green,black,kovaru = ремень?,0,akufu,маяк,kambipu,2,2020-05-13_17h48.34.163,words,2020.1.2,Win32,60,,,,,,,,,,,,,,,,,,,,,,,,,,,,,,,,,,,,,,,,,,,,,,,
0,7,7,7,1,asamu,самолет,asamu.wav,конверт,наперсток,самолет,black,black,green,asamu = самолет?,1,nevetu,колбаса,derartu,2,2020-05-13_17h48.34.163,words,2020.1.2,Win32,60,,,,,,,,,,,,,,,,,,,,,,,,,,,,,,,,,,,,,,,,,,,,,,,
0,8,8,8,1,rantare,флаг,rantare.wav,флаг,стрела,ремень,green,black,black,rantare = флаг?,1,topeme,наперсток,koderde,2,2020-05-13_17h48.34.163,words,2020.1.2,Win32,60,,,,,,,,,,,,,,,,,,,,,,,,,,,,,,,,,,,,,,,,,,,,,,,
,,,,,morvidu,точилка,morvidu.wav,шашлык,точилка,свисток,black,green,black,morvidu = точилка?,1,sankadu,качели,bokente,2,2020-05-13_17h48.34.163,words,2020.1.2,Win32,60,down,1.781645,0,0,0,0,1,,,,,,,,,,,,,,,,,,,,,,,,,,,,,,,,,,,,,,,,
,,,,,kambipu,стол,kambipu.wav,стол,компас,намордник,green,black,black,kambipu = кроссворд?,0,potabu,кроссворд,felkure,2,2020-05-13_17h48.34.163,words,2020.1.2,Win32,60,left,1.674585,0,1,1,1,1,,,,,,,,,,,,,,,,,,,,,,,,,,,,,,,,,,,,,,,,
,,,,,limate,хобот,limate.wav,хобот,роза,точилка,green,black,black,limate = хобот?,1,tuvene,компас,ediste,2,2020-05-13_17h48.34.163,words,2020.1.2,Win32,60,left,1.507005,0,2,2,2,1,,,,,,,,,,,,,,,,,,,,,,,,,,,,,,,,,,,,,,,,
,,,,,nevetu,колбаса,nevetu.wav,колбаса,качели,хобот,green,black,black,nevetu = маяк?,0,derartu,стрела,rantare,2,2020-05-13_17h48.34.163,words,2020.1.2,Win32,60,left,1.89996,0,3,3,3,1,,,,,,,,,,,,,,,,,,,,,,,,,,,,,,,,,,,,,,,,
,,,,,vortule,намордник,vortule.wav,намордник,мельница,домино,green,black,black,vortule = намордник?,1,kavitu,мельница,kankeru,2,2020-05-13_17h48.34.163,words,2020.1.2,Win32,60,left,1.64276,0,4,4,4,1,,,,,,,,,,,,,,,,,,,,,,,,,,,,,,,,,,,,,,,,
,,,,,tekuru,костюм,tekuru.wav,маяк,гранат,костюм,black,black,green,tekuru = мельница?,0,farimu,копилка,enkene,2,2020-05-13_17h48.34.163,words,2020.1.2,Win32,60,right,1.884445,0,5,5,5,1,,,,,,,,,,,,,,,,,,,,,,,,,,,,,,,,,,,,,,,,
,,,,,kovaru,ведро,kovaru.wav,костыль,ведро,костюм,black,green,black,kovaru = ремень?,0,akufu,маяк,kambipu,2,2020-05-13_17h48.34.163,words,2020.1.2,Win32,60,down,1.649815,0,6,6,6,1,,,,,,,,,,,,,,,,,,,,,,,,,,,,,,,,,,,,,,,,
,,,,,asamu,самолет,asamu.wav,конверт,наперсток,самолет,black,black,green,asamu = самолет?,1,nevetu,колбаса,derartu,2,2020-05-13_17h48.34.163,words,2020.1.2,Win32,60,right,1.4366,0,7,7,7,1,,,,,,,,,,,,,,,,,,,,,,,,,,,,,,,,,,,,,,,,
,,,,,rantare,флаг,rantare.wav,флаг,стрела,ремень,green,black,black,rantare = флаг?,1,topeme,наперсток,koderde,2,2020-05-13_17h48.34.163,words,2020.1.2,Win32,60,left,1.9238,0,8,8,8,1,,,,,,,,,,,,,,,,,,,,,,,,,,,,,,,,,,,,,,,,
,,,,,kavenu,домино,kavenu.wav,стрела,колокол,домино,black,black,green,kavenu = стол?,0,befadu,удочка,tekuru,2,2020-05-13_17h48.34.163,words,2020.1.2,Win32,60,right,1.841035,0,9,9,9,1,,,,,,,,,,,,,,,,,,,,,,,,,,,,,,,,,,,,,,,,
,,,,,morvidu,точилка,morvidu.wav,шашлык,точилка,свисток,black,green,black,morvidu = точилка?,1,sankadu,качели,bokente,2,2020-05-13_17h48.34.163,words,2020.1.2,Win32,60,,,,,,,,"[""m"",""o"",""r"",""v"",""i"",""d"",""u"",""return""]","[1.863550000000032,2.1016200000000254,2.7177950000000237,2.9658749999999827,3.189184999999952,3.717610000000036,4.053649999999948,4.901659999999993]",4.90166,morvidu,0,0,0,0,1,,,,,,,,,,,,,,,,,,,,,,,,,,,,,,,
,,,,,kambipu,стол,kambipu.wav,стол,компас,намордник,green,black,black,kambipu = кроссворд?,0,potabu,кроссворд,felkure,2,2020-05-13_17h48.34.163,words,2020.1.2,Win32,60,,,,,,,,,,7,,0,1,1,1,1,,,,,,,,,,,,,,,,,,,,,,,,,,,,,,,
,,,,,limate,хобот,limate.wav,хобот,роза,точилка,green,black,black,limate = хобот?,1,tuvene,компас,ediste,2,2020-05-13_17h48.34.163,words,2020.1.2,Win32,60,,,,,,,,"[""l"",""i"",""m"",""a"",""t"",""e"",""return""]","[1.3501750000000357,1.5651850000000422,2.2360400000000027,2.3889050000000225,2.7090400000000727,3.005085000000008,3.381444999999985]",3.381445,limate,0,2,2,2,1,,,,,,,,,,,,,,,,,,,,,,,,,,,,,,,
,,,,,nevetu,колбаса,nevetu.wav,колбаса,качели,хобот,green,black,black,nevetu = маяк?,0,derartu,стрела,rantare,2,2020-05-13_17h48.34.163,words,2020.1.2,Win32,60,,,,,,,,"[""n"",""e"",""v"",""e"",""t"",""u"",""return""]","[1.374249999999961,1.5105899999999792,1.7664200000000392,1.950604999999996,2.1603000000000065,2.479559999999992,3.0154850000000124]",3.015485,nevetu,0,3,3,3,1,,,,,,,,,,,,,,,,,,,,,,,,,,,,,,,
,,,,,vortule,намордник,vortule.wav,намордник,мельница,домино,green,black,black,vortule = намордник?,1,kavitu,мельница,kankeru,2,2020-05-13_17h48.34.163,words,2020.1.2,Win32,60,,,,,,,,"[""v"",""o"",""r"",""t"",""a"",""l"",""e"",""return""]","[2.12982999999997,2.4959400000000187,2.962229999999977,3.448009999999954,3.615949999999998,3.913289999999961,4.072040000000015,4.54538500000001]",4.545385,vortale,0,4,4,4,1,,,,,,,,,,,,,,,,,,,,,,,,,,,,,,,
,,,,,tekuru,костюм,tekuru.wav,маяк,гранат,костюм,black,black,green,tekuru = мельница?,0,farimu,копилка,enkene,2,2020-05-13_17h48.34.163,words,2020.1.2,Win32,60,,,,,,,,"[""r"",""e"",""v"",""e"",""t"",""backspace"",""r"",""t"",""e"",""return""]","[4.330929999999967,4.49726499999997,4.715124999999944,4.898754999999937,5.12230999999997,5.520869999999945,5.683120000000031,5.818239999999946,6.002375000000029,6.370980000000031]",6.37098,reverte,0,5,5,5,1,,,,,,,,,,,,,,,,,,,,,,,,,,,,,,,
,,,,,kovaru,ведро,kovaru.wav,костыль,ведро,костюм,black,green,black,kovaru = ремень?,0,akufu,маяк,kambipu,2,2020-05-13_17h48.34.163,words,2020.1.2,Win32,60,,,,,,,,"[""k""]",[6.126620000000003],7,,0,6,6,6,1,,,,,,,,,,,,,,,,,,,,,,,,,,,,,,,
,,,,,asamu,самолет,asamu.wav,конверт,наперсток,самолет,black,black,green,asamu = самолет?,1,nevetu,колбаса,derartu,2,2020-05-13_17h48.34.163,words,2020.1.2,Win32,60,,,,,,,,"[""a"",""s"",""a"",""m"",""e"",""return""]","[0.9690549999999121,1.1857599999999593,1.3492299999999204,2.69862999999998,3.0497649999999794,3.472494999999981]",3.472495,asame,0,7,7,7,1,,,,,,,,,,,,,,,,,,,,,,,,,,,,,,,
,,,,,rantare,флаг,rantare.wav,флаг,стрела,ремень,green,black,black,rantare = флаг?,1,topeme,наперсток,koderde,2,2020-05-13_17h48.34.163,words,2020.1.2,Win32,60,,,,,,,,"[""r"",""a"",""n"",""t"",""r"",""e"",""backspace"",""e"",""r"",""a""]","[1.3329599999999573,1.6128099999999677,1.8684650000000147,2.2842999999999165,2.5172599999999647,2.524090000000001,3.042934999999943,3.492484999999988,3.68324999999993,3.981694999999945]",7,,0,8,8,8,1,,,,,,,,,,,,,,,,,,,,,,,,,,,,,,,
,,,,,kavenu,домино,kavenu.wav,стрела,колокол,домино,black,black,green,kavenu = стол?,0,befadu,удочка,tekuru,2,2020-05-13_17h48.34.163,words,2020.1.2,Win32,60,,,,,,,,"[""k"",""a"",""v"",""e"",""n"",""u"",""return""]","[2.7433500000000777,2.839330000000018,3.223455000000058,3.4719900000000052,3.9993200000000115,4.272020000000111,4.647805000000091]",4.647805,kavenu,0,9,9,9,1,,,,,,,,,,,,,,,,,,,,,,,,,,,,,,,
,,,,,,,,,,,,,,,,,,,2,2020-05-13_17h48.34.163,words,2020.1.2,Win32,60,,,,,,,,,,,,,,,,,0,0,0,0,1,0:10,,,,,,,,,,,,,,,,,,,,,,,,,
0,0,0,0,1,apokte,пальма,apokte.wav,шприц,свисток,пальма,black,black,green,apokte = пальма?,1,limate,хобот,tuvene,2,2020-05-13_17h48.34.163,words,2020.1.2,Win32,60,,,,,,,,,,,,,,,,,,,,,,,,,,,,,,,,,,,,,,,,,,,,,,,
0,1,1,1,1,eskife,роза,eskife.wav,мельница,коридор,роза,black,black,green,eskife = роза?,1,mubale,шашлык,vantimu,2,2020-05-13_17h48.34.163,words,2020.1.2,Win32,60,,,,,,,,,,,,,,,,,,,,,,,,,,,,,,,,,,,,,,,,,,,,,,,
0,2,2,2,1,mubale,шашлык,mubale.wav,шашлык,стрела,копилка,green,black,black,mubale = шашлык?,1,vantimu,костыль,farantu,2,2020-05-13_17h48.34.163,words,2020.1.2,Win32,60,,,,,,,,,,,,,,,,,,,,,,,,,,,,,,,,,,,,,,,,,,,,,,,
0,3,3,3,1,makevu,утюг,makevu.wav,утюг,аквариум,стрела,green,black,black,makevu = свисток?,0,tinfetu,аквариум,akete,2,2020-05-13_17h48.34.163,words,2020.1.2,Win32,60,,,,,,,,,,,,,,,,,,,,,,,,,,,,,,,,,,,,,,,,,,,,,,,
0,4,4,4,1,enkene,коридор,enkene.wav,коридор,удочка,роза,green,black,black,enkene = колокол?,0,eskife,роза,mubale,2,2020-05-13_17h48.34.163,words,2020.1.2,Win32,60,,,,,,,,,,,,,,,,,,,,,,,,,,,,,,,,,,,,,,,,,,,,,,,
0,5,5,5,1,ekiste,веер,ekiste.wav,веер,шприц,костюм,green,black,black,ekiste = микрофон?,0,apokte,пальма,limate,2,2020-05-13_17h48.34.163,words,2020.1.2,Win32,60,,,,,,,,,,,,,,,,,,,,,,,,,,,,,,,,,,,,,,,,,,,,,,,
0,6,6,6,1,potabu,кроссворд,potabu.wav,кроссворд,гвоздь,мельница,green,black,black,potabu = пистолет?,0,felkure,конверт,ekiste,2,2020-05-13_17h48.34.163,words,2020.1.2,Win32,60,,,,,,,,,,,,,,,,,,,,,,,,,,,,,,,,,,,,,,,,,,,,,,,
0,7,7,7,1,derene,мяч,derene.wav,терка,гранат,мяч,black,black,green,derene = колбаса?,0,kavenu,домино,befadu,2,2020-05-13_17h48.34.163,words,2020.1.2,Win32,60,,,,,,,,,,,,,,,,,,,,,,,,,,,,,,,,,,,,,,,,,,,,,,,
,,,,,apokte,пальма,apokte.wav,шприц,свисток,пальма,black,black,green,apokte = пальма?,1,limate,хобот,tuvene,2,2020-05-13_17h48.34.163,words,2020.1.2,Win32,60,right,2.41778,0,0,0,0,1,,,,,,,,,,,,,,,,,,,,,,,,,,,,,,,,,,,,,,,,
,,,,,eskife,роза,eskife.wav,мельница,коридор,роза,black,black,green,eskife = роза?,1,mubale,шашлык,vantimu,2,2020-05-13_17h48.34.163,words,2020.1.2,Win32,60,right,1.458875,0,1,1,1,1,,,,,,,,,,,,,,,,,,,,,,,,,,,,,,,,,,,,,,,,
,,,,,mubale,шашлык,mubale.wav,шашлык,стрела,копилка,green,black,black,mubale = шашлык?,1,vantimu,костыль,farantu,2,2020-05-13_17h48.34.163,words,2020.1.2,Win32,60,left,1.931835,0,2,2,2,1,,,,,,,,,,,,,,,,,,,,,,,,,,,,,,,,,,,,,,,,
,,,,,makevu,утюг,makevu.wav,утюг,аквариум,стрела,green,black,black,makevu = свисток?,0,tinfetu,аквариум,akete,2,2020-05-13_17h48.34.163,words,2020.1.2,Win32,60,left,1.72801,0,3,3,3,1,,,,,,,,,,,,,,,,,,,,,,,,,,,,,,,,,,,,,,,,
,,,,,enkene,коридор,enkene.wav,коридор,удочка,роза,green,black,black,enkene = колокол?,0,eskife,роза,mubale,2,2020-05-13_17h48.34.163,words,2020.1.2,Win32,60,left,2.097155,0,4,4,4,1,,,,,,,,,,,,,,,,,,,,,,,,,,,,,,,,,,,,,,,,
,,,,,ekiste,веер,ekiste.wav,веер,шприц,костюм,green,black,black,ekiste = микрофон?,0,apokte,пальма,limate,2,2020-05-13_17h48.34.163,words,2020.1.2,Win32,60,left,1.331735,0,5,5,5,1,,,,,,,,,,,,,,,,,,,,,,,,,,,,,,,,,,,,,,,,
,,,,,potabu,кроссворд,potabu.wav,кроссворд,гвоздь,мельница,green,black,black,potabu = пистолет?,0,felkure,конверт,ekiste,2,2020-05-13_17h48.34.163,words,2020.1.2,Win32,60,left,1.62723,0,6,6,6,1,,,,,,,,,,,,,,,,,,,,,,,,,,,,,,,,,,,,,,,,
,,,,,derene,мяч,derene.wav,терка,гранат,мяч,black,black,green,derene = колбаса?,0,kavenu,домино,befadu,2,2020-05-13_17h48.34.163,words,2020.1.2,Win32,60,,,0,7,7,7,1,,,,,,,,,,,,,,,,,,,,,,,,,,,,,,,,,,,,,,,,
,,,,,denrete,гвоздь,denrete.wav,самолет,клубок,гвоздь,black,black,green,denrete = гвоздь?,1,asamu,самолет,nevetu,2,2020-05-13_17h48.34.163,words,2020.1.2,Win32,60,right,1.270945,0,8,8,8,1,,,,,,,,,,,,,,,,,,,,,,,,,,,,,,,,,,,,,,,,
,,,,,apokte,пальма,apokte.wav,шприц,свисток,пальма,black,black,green,apokte = пальма?,1,limate,хобот,tuvene,2,2020-05-13_17h48.34.163,words,2020.1.2,Win32,60,,,,,,,,"[""a"",""p"",""o"",""k"",""t"",""e"",""return""]","[1.8803500000000213,2.398680000000013,2.749565000000075,3.755045000000109,4.150655000000029,4.281575000000089,4.622585000000072]",4.622585,apokte,0,0,0,0,1,,,,,,,,,,,,,,,,,,,,,,,,,,,,,,,
,,,,,eskife,роза,eskife.wav,мельница,коридор,роза,black,black,green,eskife = роза?,1,mubale,шашлык,vantimu,2,2020-05-13_17h48.34.163,words,2020.1.2,Win32,60,,,,,,,,"[""e"",""s"",""k"",""i"",""f"",""e"",""return""]","[3.969500000000039,4.4494849999999815,5.136415000000056,5.330010000000016,5.937019999999961,6.081014999999979,6.296834999999987]",6.296835,eskife,0,1,1,1,1,,,,,,,,,,,,,,,,,,,,,,,,,,,,,,,
,,,,,mubale,шашлык,mubale.wav,шашлык,стрела,копилка,green,black,black,mubale = шашлык?,1,vantimu,костыль,farantu,2,2020-05-13_17h48.34.163,words,2020.1.2,Win32,60,,,,,,,,"[""m"",""u"",""b"",""a"",""l"",""e"",""return""]","[1.307875000000081,1.931925000000092,2.283975000000055,2.4462050000000772,2.6358600000000934,2.798180000000002,3.1557750000001192]",3.155775,mubale,0,2,2,2,1,,,,,,,,,,,,,,,,,,,,,,,,,,,,,,,
,,,,,makevu,утюг,makevu.wav,утюг,аквариум,стрела,green,black,black,makevu = свисток?,0,tinfetu,аквариум,akete,2,2020-05-13_17h48.34.163,words,2020.1.2,Win32,60,,,,,,,,"[""m"",""a"",""k"",""e"",""b"",""e"",""return""]","[2.2327099999999973,2.4395000000000664,3.1755000000000564,3.4318850000000793,4.255490000000009,4.439405000000079,4.887474999999995]",4.887475,makebe,0,3,3,3,1,,,,,,,,,,,,,,,,,,,,,,,,,,,,,,,
,,,,,enkene,коридор,enkene.wav,коридор,удочка,роза,green,black,black,enkene = колокол?,0,eskife,роза,mubale,2,2020-05-13_17h48.34.163,words,2020.1.2,Win32,60,,,,,,,,"[""e"",""n"",""r"",""e"",""t"",""e"",""backspace"",""backspace""]","[1.7519449999999779,2.9507600000000593,3.1681499999999687,3.3359850000000506,3.561900000000037,3.7524700000000166,4.318110000000047,4.463335000000029]",7,,0,4,4,4,1,,,,,,,,,,,,,,,,,,,,,,,,,,,,,,,
,,,,,ekiste,веер,ekiste.wav,веер,шприц,костюм,green,black,black,ekiste = микрофон?,0,apokte,пальма,limate,2,2020-05-13_17h48.34.163,words,2020.1.2,Win32,60,,,,,,,,"[""e"",""k"",""i"",""s"",""t"",""e"",""return""]","[4.317129999999906,4.925064999999904,5.1205549999999675,5.285119999999893,5.532944999999927,5.693634999999972,5.813864999999964]",5.813865,ekiste,0,5,5,5,1,,,,,,,,,,,,,,,,,,,,,,,,,,,,,,,
,,,,,potabu,кроссворд,potabu.wav,кроссворд,гвоздь,мельница,green,black,black,potabu = пистолет?,0,felkure,конверт,ekiste,2,2020-05-13_17h48.34.163,words,2020.1.2,Win32,60,,,,,,,,"[""p"",""o"",""t"",""a"",""b"",""u"",""return""]","[1.344310000000064,1.5426200000000563,2.0795550000000276,2.215065000000095,2.7025650000000496,2.9995600000000877,3.366565000000037]",3.366565,potabu,0,6,6,6,1,,,,,,,,,,,,,,,,,,,,,,,,,,,,,,,
,,,,,derene,мяч,derene.wav,терка,гранат,мяч,black,black,green,derene = колбаса?,0,kavenu,домино,befadu,2,2020-05-13_17h48.34.163,words,2020.1.2,Win32,60,,,,,,,,"[""d"",""e"",""r"",""e"",""n"",""e"",""return""]","[1.7338050000000749,1.8823650000000498,2.0568550000000414,2.2020899999999983,2.3801300000000083,2.4822050000000218,2.81795000000011]",2.81795,derene,0,7,7,7,1,,,,,,,,,,,,,,,,,,,,,,,,,,,,,,,
,,,,,denrete,гвоздь,denrete.wav,самолет,клубок,гвоздь,black,black,green,denrete = гвоздь?,1,asamu,самолет,nevetu,2,2020-05-13_17h48.34.163,words,2020.1.2,Win32,60,,,,,,,,"[""d"",""e"",""r"",""e"",""t"",""n"",""backspace"",""backspace"",""n"",""t"",""e"",""return""]","[1.460610000000031,1.6280950000000303,1.8360999999999876,1.9805300000000443,2.5241150000000516,2.708274999999958,3.1626449999999977,3.2822099999999637,3.6135450000000446,3.803959999999961,3.9974200000000337,4.267994999999985]",4.267995,derente,0,8,8,8,1,,,,,,,,,,,,,,,,,,,,,,,,,,,,,,,
,,,,,,,,,,,,,,,,,,,2,2020-05-13_17h48.34.163,words,2020.1.2,Win32,60,,,,,,,,,,,,,,,,,0,1,1,1,1,11:20,,,,,,,,,,,,,,,,,,,,,,,,,
0,0,0,0,1,kankeru,колокол,kankeru.wav,колокол,веер,микрофон,green,black,black,kankeru = костюм?,0,derene,мяч,kavenu,2,2020-05-13_17h48.34.163,words,2020.1.2,Win32,60,,,,,,,,,,,,,,,,,,,,,,,,,,,,,,,,,,,,,,,,,,,,,,,
0,1,1,1,1,kasfine,клубок,kasfine.wav,компас,ведро,клубок,black,black,green,kasfine = клубок?,1,denrete,гвоздь,asamu,2,2020-05-13_17h48.34.163,words,2020.1.2,Win32,60,,,,,,,,,,,,,,,,,,,,,,,,,,,,,,,,,,,,,,,,,,,,,,,
0,2,2,2,1,akufu,маяк,akufu.wav,маяк,наперсток,клубок,green,black,black,akufu = гранат?,0,kambipu,стол,potabu,2,2020-05-13_17h48.34.163,words,2020.1.2,Win32,60,,,,,,,,,,,,,,,,,,,,,,,,,,,,,,,,,,,,,,,,,,,,,,,
0,3,3,3,1,tuvene,компас,tuvene.wav,компас,клубок,костыль,green,black,black,tuvene = компас?,1,ediste,гранат,avade,2,2020-05-13_17h48.34.163,words,2020.1.2,Win32,60,,,,,,,,,,,,,,,,,,,,,,,,,,,,,,,,,,,,,,,,,,,,,,,
0,4,4,4,1,tinfetu,аквариум,tinfetu.wav,свисток,аквариум,конверт,black,green,black,tinfetu = аквариум?,1,akete,ремень,morvidu,2,2020-05-13_17h48.34.163,words,2020.1.2,Win32,60,,,,,,,,,,,,,,,,,,,,,,,,,,,,,,,,,,,,,,,,,,,,,,,
0,5,5,5,1,sankadu,качели,sankadu.wav,самолет,качели,пистолет,black,green,black,sankadu = качели?,1,bokente,одуванчик,kovaru,2,2020-05-13_17h48.34.163,words,2020.1.2,Win32,60,,,,,,,,,,,,,,,,,,,,,,,,,,,,,,,,,,,,,,,,,,,,,,,
0,6,6,6,1,vantimu,костыль,vantimu.wav,костыль,пальма,кроссворд,green,black,black,vantimu = костыль?,1,farantu,пистолет,makevu,2,2020-05-13_17h48.34.163,words,2020.1.2,Win32,60,,,,,,,,,,,,,,,,,,,,,,,,,,,,,,,,,,,,,,,,,,,,,,,
0,7,7,7,1,derartu,стрела,derartu.wav,костюм,стрела,колбаса,black,green,black,derartu = стрела?,1,rantare,флаг,topeme,2,2020-05-13_17h48.34.163,words,2020.1.2,Win32,60,,,,,,,,,,,,,,,,,,,,,,,,,,,,,,,,,,,,,,,,,,,,,,,
,,,,,kankeru,колокол,kankeru.wav,колокол,веер,микрофон,green,black,black,kankeru = костюм?,0,derene,мяч,kavenu,2,2020-05-13_17h48.34.163,words,2020.1.2,Win32,60,left,1.182125,0,0,0,0,1,,,,,,,,,,,,,,,,,,,,,,,,,,,,,,,,,,,,,,,,
,,,,,kasfine,клубок,kasfine.wav,компас,ведро,клубок,black,black,green,kasfine = клубок?,1,denrete,гвоздь,asamu,2,2020-05-13_17h48.34.163,words,2020.1.2,Win32,60,right,2.39681,0,1,1,1,1,,,,,,,,,,,,,,,,,,,,,,,,,,,,,,,,,,,,,,,,
,,,,,akufu,маяк,akufu.wav,маяк,наперсток,клубок,green,black,black,akufu = гранат?,0,kambipu,стол,potabu,2,2020-05-13_17h48.34.163,words,2020.1.2,Win32,60,left,1.742225,0,2,2,2,1,,,,,,,,,,,,,,,,,,,,,,,,,,,,,,,,,,,,,,,,
,,,,,tuvene,компас,tuvene.wav,компас,клубок,костыль,green,black,black,tuvene = компас?,1,ediste,гранат,avade,2,2020-05-13_17h48.34.163,words,2020.1.2,Win32,60,left,1.545985,0,3,3,3,1,,,,,,,,,,,,,,,,,,,,,,,,,,,,,,,,,,,,,,,,
,,,,,tinfetu,аквариум,tinfetu.wav,свисток,аквариум,конверт,black,green,black,tinfetu = аквариум?,1,akete,ремень,morvidu,2,2020-05-13_17h48.34.163,words,2020.1.2,Win32,60,down,2.23671,0,4,4,4,1,,,,,,,,,,,,,,,,,,,,,,,,,,,,,,,,,,,,,,,,
,,,,,sankadu,качели,sankadu.wav,самолет,качели,пистолет,black,green,black,sankadu = качели?,1,bokente,одуванчик,kovaru,2,2020-05-13_17h48.34.163,words,2020.1.2,Win32,60,down,1.58276,0,5,5,5,1,,,,,,,,,,,,,,,,,,,,,,,,,,,,,,,,,,,,,,,,
,,,,,vantimu,костыль,vantimu.wav,костыль,пальма,кроссворд,green,black,black,vantimu = костыль?,1,farantu,пистолет,makevu,2,2020-05-13_17h48.34.163,words,2020.1.2,Win32,60,left,2.80893,0,6,6,6,1,,,,,,,,,,,,,,,,,,,,,,,,,,,,,,,,,,,,,,,,
,,,,,derartu,стрела,derartu.wav,костюм,стрела,колбаса,black,green,black,derartu = стрела?,1,rantare,флаг,topeme,2,2020-05-13_17h48.34.163,words,2020.1.2,Win32,60,down,1.94259,0,7,7,7,1,,,,,,,,,,,,,,,,,,,,,,,,,,,,,,,,,,,,,,,,
,,,,,reskane,свисток,reskane.wav,пальма,стол,свисток,black,black,green,reskane = ведро?,0,pafinu,терка,reskane,2,2020-05-13_17h48.34.163,words,2020.1.2,Win32,60,right,2.245025,0,8,8,8,1,,,,,,,,,,,,,,,,,,,,,,,,,,,,,,,,,,,,,,,,
,,,,,kankeru,колокол,kankeru.wav,колокол,веер,микрофон,green,black,black,kankeru = костюм?,0,derene,мяч,kavenu,2,2020-05-13_17h48.34.163,words,2020.1.2,Win32,60,,,,,,,,"[""k"",""a"",""n"",""k"",""e"",""r"",""u"",""return""]","[2.6304000000000087,2.7650200000000495,2.9484500000000935,3.667325000000119,3.804450000000088,4.020905000000084,4.37281500000006,4.7580749999999625]",4.758075,kankeru,0,0,0,0,1,,,,,,,,,,,,,,,,,,,,,,,,,,,,,,,
,,,,,kasfine,клубок,kasfine.wav,компас,ведро,клубок,black,black,green,kasfine = клубок?,1,denrete,гвоздь,asamu,2,2020-05-13_17h48.34.163,words,2020.1.2,Win32,60,,,,,,,,"[""l"",""a"",""s"",""f"",""i"",""n"",""e"",""backspace"",""backspace"",""backspace"",""backspace"",""backspace"",""backspace"",""backspace""]","[2.5141199999998207,2.655319999999847,2.8395649999999932,4.296869999999899,4.790790000000015,5.135674999999992,5.287689999999884,5.774499999999989,5.918674999999894,6.046609999999873,6.174719999999979,6.3133349999998245,6.486744999999928,6.679894999999988]",7,,0,1,1,1,1,,,,,,,,,,,,,,,,,,,,,,,,,,,,,,,
,,,,,akufu,маяк,akufu.wav,маяк,наперсток,клубок,green,black,black,akufu = гранат?,0,kambipu,стол,potabu,2,2020-05-13_17h48.34.163,words,2020.1.2,Win32,60,,,,,,,,"[""i"",""t"",""backspace"",""backspace"",""backspace"",""backspace"",""k"",""a"",""s"",""f"",""i"",""n"",""e"",""return""]","[0.15554500000007465,0.4595999999999094,0.9143699999999626,1.082400000000007,1.2424800000001142,1.4129350000000613,2.5813499999999294,2.7003449999999702,2.868204999999989,3.8587500000001,4.051819999999907,4.276155000000017,4.413704999999936,4.691894999999931]",4.691895,kasfine,0,2,2,2,1,,,,,,,,,,,,,,,,,,,,,,,,,,,,,,,
,,,,,tuvene,компас,tuvene.wav,компас,клубок,костыль,green,black,black,tuvene = компас?,1,ediste,гранат,avade,2,2020-05-13_17h48.34.163,words,2020.1.2,Win32,60,,,,,,,,"[""v"",""backspace"",""t"",""u"",""v"",""e"",""n"",""e"",""return""]","[1.5198700000000827,2.237609999999904,2.9993600000000242,3.439245000000028,3.8647550000000592,4.079929999999877,4.40649499999995,4.517759999999953,4.814795000000004]",4.814795,tuvene,0,3,3,3,1,,,,,,,,,,,,,,,,,,,,,,,,,,,,,,,
,,,,,tinfetu,аквариум,tinfetu.wav,свисток,аквариум,конверт,black,green,black,tinfetu = аквариум?,1,akete,ремень,morvidu,2,2020-05-13_17h48.34.163,words,2020.1.2,Win32,60,,,,,,,,"[""t"",""i"",""n"",""f"",""e"",""t"",""u"",""return""]","[1.9929299999998875,2.208904999999959,2.592234999999846,2.895409999999856,3.0886849999999413,3.3521449999998367,3.600979999999936,4.048504999999977]",4.048505,tinfetu,0,4,4,4,1,,,,,,,,,,,,,,,,,,,,,,,,,,,,,,,
,,,,,sankadu,качели,sankadu.wav,самолет,качели,пистолет,black,green,black,sankadu = качели?,1,bokente,одуванчик,kovaru,2,2020-05-13_17h48.34.163,words,2020.1.2,Win32,60,,,,,,,,"[""s"",""a"",""n"",""k"",""a"",""d"",""u"",""return""]","[2.829859999999826,3.171269999999822,3.4753650000000107,4.675759999999855,4.843564999999899,5.082284999999956,5.348039999999855,5.707394999999906]",5.707395,sankadu,0,5,5,5,1,,,,,,,,,,,,,,,,,,,,,,,,,,,,,,,
,,,,,vantimu,костыль,vantimu.wav,костыль,пальма,кроссворд,green,black,black,vantimu = костыль?,1,farantu,пистолет,makevu,2,2020-05-13_17h48.34.163,words,2020.1.2,Win32,60,,,,,,,,"[""v"",""e"",""t"",""backspace"",""n"",""t"",""i"",""v"",""e"",""return""]","[2.4703349999999773,2.7023199999998724,3.7984349999999267,4.493150000000014,4.696009999999887,4.880175000000008,5.093149999999923,5.679734999999937,5.864000000000033,6.2373499999998785]",6.23735,ventive,0,6,6,6,1,,,,,,,,,,,,,,,,,,,,,,,,,,,,,,,
,,,,,derartu,стрела,derartu.wav,костюм,стрела,колбаса,black,green,black,derartu = стрела?,1,rantare,флаг,topeme,2,2020-05-13_17h48.34.163,words,2020.1.2,Win32,60,,,,,,,,"[""d"",""e"",""r"",""a"",""r"",""t"",""u"",""return""]","[3.2559899999998834,3.424299999999903,3.6242999999999483,3.824290000000019,4.0389499999997724,4.1915449999999055,4.488284999999905,4.78412000000003]",4.78412,derartu,0,7,7,7,1,,,,,,,,,,,,,,,,,,,,,,,,,,,,,,,
,,,,,reskane,свисток,reskane.wav,пальма,стол,свисток,black,black,green,reskane = ведро?,0,pafinu,терка,reskane,2,2020-05-13_17h48.34.163,words,2020.1.2,Win32,60,,,,,,,,"[""r"",""e"",""s"",""k"",""a"",""n"",""e"",""return""]","[3.251684999999952,3.4511600000000726,4.266744999999901,4.754580000000033,4.874655000000075,5.0343299999999545,5.194150000000036,5.59657500000003]",5.596575,reskane,0,8,8,8,1,,,,,,,,,,,,,,,,,,,,,,,,,,,,,,,
,,,,,,,,,,,,,,,,,,,2,2020-05-13_17h48.34.163,words,2020.1.2,Win32,60,,,,,,,,,,,,,,,,,0,2,2,2,1,21:30,,,,,,,,,,,,,,,,,,,,,,,,,
0,0,0,0,1,topeme,наперсток,topeme.wav,маяк,коридор,наперсток,black,black,green,topeme = домино?,0,koderde,микрофон,kasfine,2,2020-05-13_17h48.34.163,words,2020.1.2,Win32,60,,,,,,,,,,,,,,,,,,,,,,,,,,,,,,,,,,,,,,,,,,,,,,,
0,1,1,1,1,pafinu,терка,pafinu.wav,терка,домино,качели,green,black,black,pafinu = терка?,1,reskane,свисток,pafinu,2,2020-05-13_17h48.34.163,words,2020.1.2,Win32,60,,,,,,,,,,,,,,,,,,,,,,,,,,,,,,,,,,,,,,,,,,,,,,,
0,2,2,2,1,bokente,одуванчик,bokente.wav,одуванчик,компас,гвоздь,green,black,black,bokente = одуванчик?,1,kovaru,ведро,akufu,2,2020-05-13_17h48.34.163,words,2020.1.2,Win32,60,,,,,,,,,,,,,,,,,,,,,,,,,,,,,,,,,,,,,,,,,,,,,,,
0,3,3,3,1,farimu,копилка,farimu.wav,шашлык,копилка,веер,black,green,black,farimu = копилка?,1,enkene,коридор,eskife,2,2020-05-13_17h48.34.163,words,2020.1.2,Win32,60,,,,,,,,,,,,,,,,,,,,,,,,,,,,,,,,,,,,,,,,,,,,,,,
0,4,4,4,1,akete,ремень,akete.wav,маяк,шашлык,ремень,black,black,green,akete = утюг?,0,morvidu,точилка,sankadu,2,2020-05-13_17h48.34.163,words,2020.1.2,Win32,60,,,,,,,,,,,,,,,,,,,,,,,,,,,,,,,,,,,,,,,,,,,,,,,
0,5,5,5,1,koderde,микрофон,koderde.wav,стрела,микрофон,пальма,black,green,black,koderde = наперсток?,0,kasfine,клубок,denrete,2,2020-05-13_17h48.34.163,words,2020.1.2,Win32,60,,,,,,,,,,,,,,,,,,,,,,,,,,,,,,,,,,,,,,,,,,,,,,,
0,6,6,6,1,ediste,гранат,ediste.wav,удочка,шашлык,гранат,black,black,green,ediste = мяч?,0,avade,шприц,vortule,2,2020-05-13_17h48.34.163,words,2020.1.2,Win32,60,,,,,,,,,,,,,,,,,,,,,,,,,,,,,,,,,,,,,,,,,,,,,,,
0,7,7,7,1,farantu,пистолет,farantu.wav,микрофон,пистолет,одуванчик,black,green,black,farantu = веер?,0,makevu,утюг,tinfetu,2,2020-05-13_17h48.34.163,words,2020.1.2,Win32,60,,,,,,,,,,,,,,,,,,,,,,,,,,,,,,,,,,,,,,,,,,,,,,,
,,,,,topeme,наперсток,topeme.wav,маяк,коридор,наперсток,black,black,green,topeme = домино?,0,koderde,микрофон,kasfine,2,2020-05-13_17h48.34.163,words,2020.1.2,Win32,60,right,1.837675,0,0,0,0,1,,,,,,,,,,,,,,,,,,,,,,,,,,,,,,,,,,,,,,,,
,,,,,pafinu,терка,pafinu.wav,терка,домино,качели,green,black,black,pafinu = терка?,1,reskane,свисток,pafinu,2,2020-05-13_17h48.34.163,words,2020.1.2,Win32,60,left,1.34959,0,1,1,1,1,,,,,,,,,,,,,,,,,,,,,,,,,,,,,,,,,,,,,,,,
,,,,,bokente,одуванчик,bokente.wav,одуванчик,компас,гвоздь,green,black,black,bokente = одуванчик?,1,kovaru,ведро,akufu,2,2020-05-13_17h48.34.163,words,2020.1.2,Win32,60,left,1.447265,0,2,2,2,1,,,,,,,,,,,,,,,,,,,,,,,,,,,,,,,,,,,,,,,,
,,,,,farimu,копилка,farimu.wav,шашлык,копилка,веер,black,green,black,farimu = копилка?,1,enkene,коридор,eskife,2,2020-05-13_17h48.34.163,words,2020.1.2,Win32,60,down,2.081815,0,3,3,3,1,,,,,,,,,,,,,,,,,,,,,,,,,,,,,,,,,,,,,,,,
,,,,,akete,ремень,akete.wav,маяк,шашлык,ремень,black,black,green,akete = утюг?,0,morvidu,точилка,sankadu,2,2020-05-13_17h48.34.163,words,2020.1.2,Win32,60,right,1.709385,0,4,4,4,1,,,,,,,,,,,,,,,,,,,,,,,,,,,,,,,,,,,,,,,,
,,,,,koderde,микрофон,koderde.wav,стрела,микрофон,пальма,black,green,black,koderde = наперсток?,0,kasfine,клубок,denrete,2,2020-05-13_17h48.34.163,words,2020.1.2,Win32,60,down,1.105955,0,5,5,5,1,,,,,,,,,,,,,,,,,,,,,,,,,,,,,,,,,,,,,,,,
,,,,,ediste,гранат,ediste.wav,удочка,шашлык,гранат,black,black,green,ediste = мяч?,0,avade,шприц,vortule,2,2020-05-13_17h48.34.163,words,2020.1.2,Win32,60,right,1.49852,0,6,6,6,1,,,,,,,,,,,,,,,,,,,,,,,,,,,,,,,,,,,,,,,,
,,,,,farantu,пистолет,farantu.wav,микрофон,пистолет,одуванчик,black,green,black,farantu = веер?,0,makevu,утюг,tinfetu,2,2020-05-13_17h48.34.163,words,2020.1.2,Win32,60,down,1.763185,0,7,7,7,1,,,,,,,,,,,,,,,,,,,,,,,,,,,,,,,,,,,,,,,,
,,,,,kavitu,мельница,kavitu.wav,аквариум,ремень,мельница,black,black,green,kavitu = коридор?,0,kankeru,колокол,derene,2,2020-05-13_17h48.34.163,words,2020.1.2,Win32,60,right,2.6942,0,8,8,8,1,,,,,,,,,,,,,,,,,,,,,,,,,,,,,,,,,,,,,,,,
,,,,,topeme,наперсток,topeme.wav,маяк,коридор,наперсток,black,black,green,topeme = домино?,0,koderde,микрофон,kasfine,2,2020-05-13_17h48.34.163,words,2020.1.2,Win32,60,,,,,,,,"[""t"",""o"",""p"",""e"",""m"",""e"",""return""]","[3.5881749999998647,4.052869999999984,5.148050000000012,5.280475000000024,6.324899999999843,6.480964999999969,6.814380000000028]",6.81438,topeme,0,0,0,0,1,,,,,,,,,,,,,,,,,,,,,,,,,,,,,,,
,,,,,pafinu,терка,pafinu.wav,терка,домино,качели,green,black,black,pafinu = терка?,1,reskane,свисток,pafinu,2,2020-05-13_17h48.34.163,words,2020.1.2,Win32,60,,,,,,,,"[""p"",""a"",""f"",""i"",""t"",""u"",""return""]","[2.09666500000003,2.264135000000124,3.3193750000000364,3.839324999999917,4.47124000000008,4.575444999999945,4.999164999999948]",4.999165,pafitu,0,1,1,1,1,,,,,,,,,,,,,,,,,,,,,,,,,,,,,,,
,,,,,bokente,одуванчик,bokente.wav,одуванчик,компас,гвоздь,green,black,black,bokente = одуванчик?,1,kovaru,ведро,akufu,2,2020-05-13_17h48.34.163,words,2020.1.2,Win32,60,,,,,,,,"[""b"",""o"",""l"",""e"",""r"",""t"",""e"",""backspace"",""backspace"",""backspace"",""backspace"",""backspace"",""k""]","[2.450365000000147,2.931500000000142,4.163105000000087,4.336995000000115,4.538085000000137,4.7374549999999545,4.9218550000000505,5.408005000000003,5.551934999999958,5.6967899999999645,6.1837450000000445,6.3759450000000015,6.779504999999972]",7,,0,2,2,2,1,,,,,,,,,,,,,,,,,,,,,,,,,,,,,,,
,,,,,farimu,копилка,farimu.wav,шашлык,копилка,веер,black,green,black,farimu = копилка?,1,enkene,коридор,eskife,2,2020-05-13_17h48.34.163,words,2020.1.2,Win32,60,,,,,,,,,,7,,0,3,3,3,1,,,,,,,,,,,,,,,,,,,,,,,,,,,,,,,
,,,,,akete,ремень,akete.wav,маяк,шашлык,ремень,black,black,green,akete = утюг?,0,morvidu,точилка,sankadu,2,2020-05-13_17h48.34.163,words,2020.1.2,Win32,60,,,,,,,,"[""a"",""k"",""e"",""t"",""e"",""return""]","[3.1370450000000574,3.3697799999999916,3.56532500000003,3.9319849999999406,4.121799999999894,4.482084999999984]",4.482085,akete,0,4,4,4,1,,,,,,,,,,,,,,,,,,,,,,,,,,,,,,,
,,,,,koderde,микрофон,koderde.wav,стрела,микрофон,пальма,black,green,black,koderde = наперсток?,0,kasfine,клубок,denrete,2,2020-05-13_17h48.34.163,words,2020.1.2,Win32,60,,,,,,,,"[""k"",""o"",""d"",""e"",""r"",""d"",""e"",""return""]","[1.5663250000000062,1.788759999999911,2.349379999999883,2.5166499999997995,2.676919999999882,4.36611999999991,4.516664999999875,5.133564999999862]",5.133565,koderde,0,5,5,5,1,,,,,,,,,,,,,,,,,,,,,,,,,,,,,,,
,,,,,ediste,гранат,ediste.wav,удочка,шашлык,гранат,black,black,green,ediste = мяч?,0,avade,шприц,vortule,2,2020-05-13_17h48.34.163,words,2020.1.2,Win32,60,,,,,,,,"[""e"",""d"",""i"",""s"",""t"",""e"",""return""]","[3.191424999999981,3.4703799999999774,3.8544949999998153,4.09417499999995,4.325054999999793,4.494229999999789,4.7985899999998765]",4.79859,ediste,0,6,6,6,1,,,,,,,,,,,,,,,,,,,,,,,,,,,,,,,
,,,,,farantu,пистолет,farantu.wav,микрофон,пистолет,одуванчик,black,green,black,farantu = веер?,0,makevu,утюг,tinfetu,2,2020-05-13_17h48.34.163,words,2020.1.2,Win32,60,,,,,,,,"[""f"",""a"",""r"",""a"",""n"",""t"",""u"",""return""]","[1.4316250000001673,1.5759850000001734,1.9985800000001746,2.127390000000105,2.718375000000151,2.87074500000017,3.670375000000149,3.9182800000000952]",3.91828,farantu,0,7,7,7,1,,,,,,,,,,,,,,,,,,,,,,,,,,,,,,,
,,,,,kavitu,мельница,kavitu.wav,аквариум,ремень,мельница,black,black,green,kavitu = коридор?,0,kankeru,колокол,derene,2,2020-05-13_17h48.34.163,words,2020.1.2,Win32,60,,,,,,,,"[""k"",""a"",""v"",""i"",""t"",""e"",""return""]","[2.4907650000000103,2.642644999999902,3.9072299999997995,4.170599999999922,4.410879999999906,4.611029999999801,5.02786500000002]",5.027865,kavite,0,8,8,8,1,,,,,,,,,,,,,,,,,,,,,,,,,,,,,,,
,,,,,morvidu,точилка,morvidu.wav,шашлык,точилка,свисток,black,green,black,morvidu = точилка?,1,sankadu,качели,bokente,2,2020-05-13_17h48.34.163,words,2020.1.2,Win32,60,,,,,,,,,,,,,,,,,,,,,,,return,27.48445,left,1.70961,0,0,0,0,1,,,,,,,,,,,,,,,,
,,,,,kambipu,стол,kambipu.wav,стол,компас,намордник,green,black,black,kambipu = кроссворд?,0,potabu,кроссворд,felkure,2,2020-05-13_17h48.34.163,words,2020.1.2,Win32,60,,,,,,,,,,,,,,,,,,,,,,,,,right,1.16667,0,1,1,1,1,,,,,,,,,,,,,,,,
,,,,,limate,хобот,limate.wav,хобот,роза,точилка,green,black,black,limate = хобот?,1,tuvene,компас,ediste,2,2020-05-13_17h48.34.163,words,2020.1.2,Win32,60,,,,,,,,,,,,,,,,,,,,,,,,,left,0.822975,0,2,2,2,1,,,,,,,,,,,,,,,,
,,,,,nevetu,колбаса,nevetu.wav,колбаса,качели,хобот,green,black,black,nevetu = маяк?,0,derartu,стрела,rantare,2,2020-05-13_17h48.34.163,words,2020.1.2,Win32,60,,,,,,,,,,,,,,,,,,,,,,,,,right,1.54428,0,3,3,3,1,,,,,,,,,,,,,,,,
,,,,,vortule,намордник,vortule.wav,намордник,мельница,домино,green,black,black,vortule = намордник?,1,kavitu,мельница,kankeru,2,2020-05-13_17h48.34.163,words,2020.1.2,Win32,60,,,,,,,,,,,,,,,,,,,,,,,,,left,1.02066,0,4,4,4,1,,,,,,,,,,,,,,,,
,,,,,tekuru,костюм,tekuru.wav,маяк,гранат,костюм,black,black,green,tekuru = мельница?,0,farimu,копилка,enkene,2,2020-05-13_17h48.34.163,words,2020.1.2,Win32,60,,,,,,,,,,,,,,,,,,,,,,,,,right,1.486585,0,5,5,5,1,,,,,,,,,,,,,,,,
,,,,,kovaru,ведро,kovaru.wav,костыль,ведро,костюм,black,green,black,kovaru = ремень?,0,akufu,маяк,kambipu,2,2020-05-13_17h48.34.163,words,2020.1.2,Win32,60,,,,,,,,,,,,,,,,,,,,,,,,,right,1.23841,0,6,6,6,1,,,,,,,,,,,,,,,,
,,,,,asamu,самолет,asamu.wav,конверт,наперсток,самолет,black,black,green,asamu = самолет?,1,nevetu,колбаса,derartu,2,2020-05-13_17h48.34.163,words,2020.1.2,Win32,60,,,,,,,,,,,,,,,,,,,,,,,,,left,0.939435,0,7,7,7,1,,,,,,,,,,,,,,,,
,,,,,rantare,флаг,rantare.wav,флаг,стрела,ремень,green,black,black,rantare = флаг?,1,topeme,наперсток,koderde,2,2020-05-13_17h48.34.163,words,2020.1.2,Win32,60,,,,,,,,,,,,,,,,,,,,,,,,,left,1.084715,0,8,8,8,1,,,,,,,,,,,,,,,,
,,,,,kavenu,домино,kavenu.wav,стрела,колокол,домино,black,black,green,kavenu = стол?,0,befadu,удочка,tekuru,2,2020-05-13_17h48.34.163,words,2020.1.2,Win32,60,,,,,,,,,,,,,,,,,,,,,,,,,right,1.19904,0,9,9,9,1,,,,,,,,,,,,,,,,
,,,,,avade,шприц,avade.wav,одуванчик,флаг,шприц,black,black,green,avade = шприц?,1,vortule,намордник,kavitu,2,2020-05-13_17h48.34.163,words,2020.1.2,Win32,60,,,,,,,,,,,,,,,,,,,,,,,,,right,1.06307,0,10,10,10,1,,,,,,,,,,,,,,,,
,,,,,apokte,пальма,apokte.wav,шприц,свисток,пальма,black,black,green,apokte = пальма?,1,limate,хобот,tuvene,2,2020-05-13_17h48.34.163,words,2020.1.2,Win32,60,,,,,,,,,,,,,,,,,,,,,,,,,left,1.454445,0,11,11,11,1,,,,,,,,,,,,,,,,
,,,,,eskife,роза,eskife.wav,мельница,коридор,роза,black,black,green,eskife = роза?,1,mubale,шашлык,vantimu,2,2020-05-13_17h48.34.163,words,2020.1.2,Win32,60,,,,,,,,,,,,,,,,,,,,,,,,,left,0.76915,0,12,12,12,1,,,,,,,,,,,,,,,,
,,,,,mubale,шашлык,mubale.wav,шашлык,стрела,копилка,green,black,black,mubale = шашлык?,1,vantimu,костыль,farantu,2,2020-05-13_17h48.34.163,words,2020.1.2,Win32,60,,,,,,,,,,,,,,,,,,,,,,,,,left,0.738995,0,13,13,13,1,,,,,,,,,,,,,,,,
,,,,,makevu,утюг,makevu.wav,утюг,аквариум,стрела,green,black,black,makevu = свисток?,0,tinfetu,аквариум,akete,2,2020-05-13_17h48.34.163,words,2020.1.2,Win32,60,,,,,,,,,,,,,,,,,,,,,,,,,right,1.336715,0,14,14,14,1,,,,,,,,,,,,,,,,
,,,,,enkene,коридор,enkene.wav,коридор,удочка,роза,green,black,black,enkene = колокол?,0,eskife,роза,mubale,2,2020-05-13_17h48.34.163,words,2020.1.2,Win32,60,,,,,,,,,,,,,,,,,,,,,,,,,right,1.037945,0,15,15,15,1,,,,,,,,,,,,,,,,
,,,,,ekiste,веер,ekiste.wav,веер,шприц,костюм,green,black,black,ekiste = микрофон?,0,apokte,пальма,limate,2,2020-05-13_17h48.34.163,words,2020.1.2,Win32,60,,,,,,,,,,,,,,,,,,,,,,,,,right,1.407575,0,16,16,16,1,,,,,,,,,,,,,,,,
,,,,,potabu,кроссворд,potabu.wav,кроссворд,гвоздь,мельница,green,black,black,potabu = пистолет?,0,felkure,конверт,ekiste,2,2020-05-13_17h48.34.163,words,2020.1.2,Win32,60,,,,,,,,,,,,,,,,,,,,,,,,,right,1.097455,0,17,17,17,1,,,,,,,,,,,,,,,,
,,,,,derene,мяч,derene.wav,терка,гранат,мяч,black,black,green,derene = колбаса?,0,kavenu,домино,befadu,2,2020-05-13_17h48.34.163,words,2020.1.2,Win32,60,,,,,,,,,,,,,,,,,,,,,,,,,right,1.048605,0,18,18,18,1,,,,,,,,,,,,,,,,
,,,,,denrete,гвоздь,denrete.wav,самолет,клубок,гвоздь,black,black,green,denrete = гвоздь?,1,asamu,самолет,nevetu,2,2020-05-13_17h48.34.163,words,2020.1.2,Win32,60,,,,,,,,,,,,,,,,,,,,,,,,,left,0.903835,0,19,19,19,1,,,,,,,,,,,,,,,,
,,,,,befadu,удочка,befadu.wav,мяч,утюг,удочка,black,black,green,befadu = удочка?,1,tekuru,костюм,farimu,2,2020-05-13_17h48.34.163,words,2020.1.2,Win32,60,,,,,,,,,,,,,,,,,,,,,,,,,right,1.15126,0,20,20,20,1,,,,,,,,,,,,,,,,
,,,,,kankeru,колокол,kankeru.wav,колокол,веер,микрофон,green,black,black,kankeru = костюм?,0,derene,мяч,kavenu,2,2020-05-13_17h48.34.163,words,2020.1.2,Win32,60,,,,,,,,,,,,,,,,,,,,,,,,,right,1.28374,0,21,21,21,1,,,,,,,,,,,,,,,,
,,,,,kasfine,клубок,kasfine.wav,компас,ведро,клубок,black,black,green,kasfine = клубок?,1,denrete,гвоздь,asamu,2,2020-05-13_17h48.34.163,words,2020.1.2,Win32,60,,,,,,,,,,,,,,,,,,,,,,,,,left,1.308745,0,22,22,22,1,,,,,,,,,,,,,,,,
,,,,,akufu,маяк,akufu.wav,маяк,наперсток,клубок,green,black,black,akufu = гранат?,0,kambipu,стол,potabu,2,2020-05-13_17h48.34.163,words,2020.1.2,Win32,60,,,,,,,,,,,,,,,,,,,,,,,,,right,1.274145,0,23,23,23,1,,,,,,,,,,,,,,,,
,,,,,tuvene,компас,tuvene.wav,компас,клубок,костыль,green,black,black,tuvene = компас?,1,ediste,гранат,avade,2,2020-05-13_17h48.34.163,words,2020.1.2,Win32,60,,,,,,,,,,,,,,,,,,,,,,,,,left,1.137965,0,24,24,24,1,,,,,,,,,,,,,,,,
,,,,,tinfetu,аквариум,tinfetu.wav,свисток,аквариум,конверт,black,green,black,tinfetu = аквариум?,1,akete,ремень,morvidu,2,2020-05-13_17h48.34.163,words,2020.1.2,Win32,60,,,,,,,,,,,,,,,,,,,,,,,,,left,1.068625,0,25,25,25,1,,,,,,,,,,,,,,,,
,,,,,sankadu,качели,sankadu.wav,самолет,качели,пистолет,black,green,black,sankadu = качели?,1,bokente,одуванчик,kovaru,2,2020-05-13_17h48.34.163,words,2020.1.2,Win32,60,,,,,,,,,,,,,,,,,,,,,,,,,left,0.99053,0,26,26,26,1,,,,,,,,,,,,,,,,
,,,,,vantimu,костыль,vantimu.wav,костыль,пальма,кроссворд,green,black,black,vantimu = костыль?,1,farantu,пистолет,makevu,2,2020-05-13_17h48.34.163,words,2020.1.2,Win32,60,,,,,,,,,,,,,,,,,,,,,,,,,left,1.161785,0,27,27,27,1,,,,,,,,,,,,,,,,
,,,,,derartu,стрела,derartu.wav,костюм,стрела,колбаса,black,green,black,derartu = стрела?,1,rantare,флаг,topeme,2,2020-05-13_17h48.34.163,words,2020.1.2,Win32,60,,,,,,,,,,,,,,,,,,,,,,,,,left,1.3949,0,28,28,28,1,,,,,,,,,,,,,,,,
,,,,,reskane,свисток,reskane.wav,пальма,стол,свисток,black,black,green,reskane = ведро?,0,pafinu,терка,reskane,2,2020-05-13_17h48.34.163,words,2020.1.2,Win32,60,,,,,,,,,,,,,,,,,,,,,,,,,right,1.049615,0,29,29,29,1,,,,,,,,,,,,,,,,
,,,,,felkure,конверт,felkure.wav,мяч,конверт,компас,black,green,black,felkure = конверт?,1,ekiste,веер,apokte,2,2020-05-13_17h48.34.163,words,2020.1.2,Win32,60,,,,,,,,,,,,,,,,,,,,,,,,,right,0.85054,0,30,30,30,1,,,,,,,,,,,,,,,,
,,,,,topeme,наперсток,topeme.wav,маяк,коридор,наперсток,black,black,green,topeme = домино?,0,koderde,микрофон,kasfine,2,2020-05-13_17h48.34.163,words,2020.1.2,Win32,60,,,,,,,,,,,,,,,,,,,,,,,,,right,1.37293,0,31,31,31,1,,,,,,,,,,,,,,,,
,,,,,pafinu,терка,pafinu.wav,терка,домино,качели,green,black,black,pafinu = терка?,1,reskane,свисток,pafinu,2,2020-05-13_17h48.34.163,words,2020.1.2,Win32,60,,,,,,,,,,,,,,,,,,,,,,,,,left,1.047945,0,32,32,32,1,,,,,,,,,,,,,,,,
,,,,,bokente,одуванчик,bokente.wav,одуванчик,компас,гвоздь,green,black,black,bokente = одуванчик?,1,kovaru,ведро,akufu,2,2020-05-13_17h48.34.163,words,2020.1.2,Win32,60,,,,,,,,,,,,,,,,,,,,,,,,,left,0.900825,0,33,33,33,1,,,,,,,,,,,,,,,,
,,,,,farimu,копилка,farimu.wav,шашлык,копилка,веер,black,green,black,farimu = копилка?,1,enkene,коридор,eskife,2,2020-05-13_17h48.34.163,words,2020.1.2,Win32,60,,,,,,,,,,,,,,,,,,,,,,,,,left,1.08056,0,34,34,34,1,,,,,,,,,,,,,,,,
,,,,,akete,ремень,akete.wav,маяк,шашлык,ремень,black,black,green,akete = утюг?,0,morvidu,точилка,sankadu,2,2020-05-13_17h48.34.163,words,2020.1.2,Win32,60,,,,,,,,,,,,,,,,,,,,,,,,,left,1.10826,0,35,35,35,1,,,,,,,,,,,,,,,,
,,,,,koderde,микрофон,koderde.wav,стрела,микрофон,пальма,black,green,black,koderde = наперсток?,0,kasfine,клубок,denrete,2,2020-05-13_17h48.34.163,words,2020.1.2,Win32,60,,,,,,,,,,,,,,,,,,,,,,,,,right,1.14699,0,36,36,36,1,,,,,,,,,,,,,,,,
,,,,,ediste,гранат,ediste.wav,удочка,шашлык,гранат,black,black,green,ediste = мяч?,0,avade,шприц,vortule,2,2020-05-13_17h48.34.163,words,2020.1.2,Win32,60,,,,,,,,,,,,,,,,,,,,,,,,,right,0.897505,0,37,37,37,1,,,,,,,,,,,,,,,,
,,,,,farantu,пистолет,farantu.wav,микрофон,пистолет,одуванчик,black,green,black,farantu = веер?,0,makevu,утюг,tinfetu,2,2020-05-13_17h48.34.163,words,2020.1.2,Win32,60,,,,,,,,,,,,,,,,,,,,,,,,,right,1.32731,0,38,38,38,1,,,,,,,,,,,,,,,,
,,,,,kavitu,мельница,kavitu.wav,аквариум,ремень,мельница,black,black,green,kavitu = коридор?,0,kankeru,колокол,derene,2,2020-05-13_17h48.34.163,words,2020.1.2,Win32,60,,,,,,,,,,,,,,,,,,,,,,,,,right,1.16579,0,39,39,39,1,,,,,,,,,,,,,,,,
,,,,,morvidu,точилка,morvidu.wav,шашлык,точилка,свисток,black,green,black,morvidu = точилка?,1,sankadu,качели,bokente,2,2020-05-13_17h48.34.163,words,2020.1.2,Win32,60,,,,,,,,,,,,,,,,,,,,,,,,,,,,,,,,4.526595,sankadu,"[""s"",""a"",""n"",""k"",""a"",""d"",""u"",""return""]","[1.7127349999996113,1.902219999999943,2.2145449999998164,3.198399999999765,3.334389999999985,3.8543150000000423,4.045314999999846,4.526594999999816]",0,0,0,0,1,,,,,,,
,,,,,kambipu,стол,kambipu.wav,стол,компас,намордник,green,black,black,kambipu = кроссворд?,0,potabu,кроссворд,felkure,2,2020-05-13_17h48.34.163,words,2020.1.2,Win32,60,,,,,,,,,,,,,,,,,,,,,,,,,,,,,,,,4.300065,potabu,"[""p"",""o"",""t"",""a"",""b"",""u"",""return""]","[2.1325299999998606,2.3333000000002357,2.7410100000001876,2.8849350000000413,3.212184999999863,3.9982899999999972,4.300064999999904]",0,1,1,1,1,,,,,,,
,,,,,limate,хобот,limate.wav,хобот,роза,точилка,green,black,black,limate = хобот?,1,tuvene,компас,ediste,2,2020-05-13_17h48.34.163,words,2020.1.2,Win32,60,,,,,,,,,,,,,,,,,,,,,,,,,,,,,,,,3.979925,tuvene,"[""t"",""u"",""v"",""e"",""n"",""e"",""return""]","[2.066769999999906,2.3938349999998536,3.1214499999996406,3.3143499999996493,3.5615349999998216,3.678549999999632,3.979924999999639]",0,2,2,2,1,,,,,,,
,,,,,nevetu,колбаса,nevetu.wav,колбаса,качели,хобот,green,black,black,nevetu = маяк?,0,derartu,стрела,rantare,2,2020-05-13_17h48.34.163,words,2020.1.2,Win32,60,,,,,,,,,,,,,,,,,,,,,,,,,,,,,,,,5.02759, ,"[""space"",""return""]","[4.786740000000009,5.027590000000146]",0,3,3,3,1,,,,,,,
,,,,,vortule,намордник,vortule.wav,намордник,мельница,домино,green,black,black,vortule = намордник?,1,kavitu,мельница,kankeru,2,2020-05-13_17h48.34.163,words,2020.1.2,Win32,60,,,,,,,,,,,,,,,,,,,,,,,,,,,,,,,,6.72344,kavitu,"[""k"",""a"",""v"",""i"",""t"",""u"",""return""]","[2.4924250000003667,2.980895000000146,4.395580000000336,5.41856000000007,5.6198050000002695,6.229800000000068,6.72344000000021]",0,4,4,4,1,,,,,,,
,,,,,tekuru,костюм,tekuru.wav,маяк,гранат,костюм,black,black,green,tekuru = мельница?,0,farimu,копилка,enkene,2,2020-05-13_17h48.34.163,words,2020.1.2,Win32,60,,,,,,,,,,,,,,,,,,,,,,,,,,,,,,,,4.82628,farime,"[""f"",""a"",""r"",""i"",""m"",""e"",""return""]","[2.651810000000296,2.859519999999975,3.782455000000027,4.067065000000184,4.332625000000007,4.466914999999972,4.826280000000224]",0,5,5,5,1,,,,,,,
,,,,,kovaru,ведро,kovaru.wav,костыль,ведро,костюм,black,green,black,kovaru = ремень?,0,akufu,маяк,kambipu,2,2020-05-13_17h48.34.163,words,2020.1.2,Win32,60,,,,,,,,,,,,,,,,,,,,,,,,,,,,,,,,3.458705, ,"[""space"",""return""]","[3.266819999999825,3.4587049999995543]",0,6,6,6,1,,,,,,,
,,,,,asamu,самолет,asamu.wav,конверт,наперсток,самолет,black,black,green,asamu = самолет?,1,nevetu,колбаса,derartu,2,2020-05-13_17h48.34.163,words,2020.1.2,Win32,60,,,,,,,,,,,,,,,,,,,,,,,,,,,,,,,,3.00351,nevete,"[""n"",""e"",""v"",""e"",""t"",""e"",""return""]","[1.3338050000002113,1.555670000000191,1.803585000000112,2.1395900000002257,2.370445000000018,2.548189999999977,3.0035100000000057]",0,7,7,7,1,,,,,,,
,,,,,rantare,флаг,rantare.wav,флаг,стрела,ремень,green,black,black,rantare = флаг?,1,topeme,наперсток,koderde,2,2020-05-13_17h48.34.163,words,2020.1.2,Win32,60,,,,,,,,,,,,,,,,,,,,,,,,,,,,,,,,5.815035,morvidu,"[""m"",""o"",""r"",""v"",""i"",""d"",""u"",""return""]","[3.0534350000002632,3.3014500000003864,3.821194999999989,4.381945000000087,4.669225000000097,5.221210000000156,5.4934400000001915,5.81503500000008]",0,8,8,8,1,,,,,,,
,,,,,kavenu,домино,kavenu.wav,стрела,колокол,домино,black,black,green,kavenu = стол?,0,befadu,удочка,tekuru,2,2020-05-13_17h48.34.163,words,2020.1.2,Win32,60,,,,,,,,,,,,,,,,,,,,,,,,,,,,,,,,2.446525, ,"[""space"",""return""]","[2.180815000000166,2.4465249999998377]",0,9,9,9,1,,,,,,,
,,,,,avade,шприц,avade.wav,одуванчик,флаг,шприц,black,black,green,avade = шприц?,1,vortule,намордник,kavitu,2,2020-05-13_17h48.34.163,words,2020.1.2,Win32,60,,,,,,,,,,,,,,,,,,,,,,,,,,,,,,,,5.566265,vortule,"[""v"",""o"",""t"",""backspace"",""r"",""t"",""u"",""l"",""e"",""return""]","[1.3111599999997452,1.702099999999973,2.3987950000000637,3.9485349999999926,4.1107999999999265,4.281799999999748,4.550229999999829,5.038344999999936,5.158219999999801,5.56626499999993]",0,10,10,10,1,,,,,,,
,,,,,apokte,пальма,apokte.wav,шприц,свисток,пальма,black,black,green,apokte = пальма?,1,limate,хобот,tuvene,2,2020-05-13_17h48.34.163,words,2020.1.2,Win32,60,,,,,,,,,,,,,,,,,,,,,,,,,,,,,,,,3.10467,limate,"[""l"",""i"",""m"",""a"",""t"",""e"",""return""]","[1.3320099999996273,1.5535799999997835,1.9766849999996339,2.136779999999817,2.4727749999997286,2.6988899999996647,3.1046699999997145]",0,11,11,11,1,,,,,,,
,,,,,eskife,роза,eskife.wav,мельница,коридор,роза,black,black,green,eskife = роза?,1,mubale,шашлык,vantimu,2,2020-05-13_17h48.34.163,words,2020.1.2,Win32,60,,,,,,,,,,,,,,,,,,,,,,,,,,,,,,,,4.95902,mubale,"[""m"",""i"",""backspace"",""u"",""b"",""a"",""l"",""e"",""return""]","[1.5142699999996694,1.8070149999998648,2.2052249999997002,2.5576599999999416,3.343554999999924,3.4815049999997427,3.8074699999997392,4.582979999999679,4.959019999999782]",0,12,12,12,1,,,,,,,
,,,,,mubale,шашлык,mubale.wav,шашлык,стрела,копилка,green,black,black,mubale = шашлык?,1,vantimu,костыль,farantu,2,2020-05-13_17h48.34.163,words,2020.1.2,Win32,60,,,,,,,,,,,,,,,,,,,,,,,,,,,,,,,,7,,"[""v"",""o"",""r"",""t""]","[5.938900000000103,6.234515000000101,6.563540000000103,6.779109999999946]",0,13,13,13,1,,,,,,,
,,,,,makevu,утюг,makevu.wav,утюг,аквариум,стрела,green,black,black,makevu = свисток?,0,tinfetu,аквариум,akete,2,2020-05-13_17h48.34.163,words,2020.1.2,Win32,60,,,,,,,,,,,,,,,,,,,,,,,,,,,,,,,,0.28082,e,"[""e"",""return""]","[0.06461499999977605,0.2808199999999488]",0,14,14,14,1,,,,,,,
,,,,,enkene,коридор,enkene.wav,коридор,удочка,роза,green,black,black,enkene = колокол?,0,eskife,роза,mubale,2,2020-05-13_17h48.34.163,words,2020.1.2,Win32,60,,,,,,,,,,,,,,,,,,,,,,,,,,,,,,,,3.469645,eskife,"[""e"",""s"",""k"",""i"",""f"",""e"",""return""]","[1.4806949999997414,1.680304999999862,2.309704999999667,2.55771999999979,3.0057199999996556,3.1982349999998405,3.469644999999673]",0,15,15,15,1,,,,,,,
,,,,,ekiste,веер,ekiste.wav,веер,шприц,костюм,green,black,black,ekiste = микрофон?,0,apokte,пальма,limate,2,2020-05-13_17h48.34.163,words,2020.1.2,Win32,60,,,,,,,,,,,,,,,,,,,,,,,,,,,,,,,,2.60226, ,"[""space"",""return""]","[2.4343949999997676,2.602260000000115]",0,16,16,16,1,,,,,,,
,,,,,potabu,кроссворд,potabu.wav,кроссворд,гвоздь,мельница,green,black,black,potabu = пистолет?,0,felkure,конверт,ekiste,2,2020-05-13_17h48.34.163,words,2020.1.2,Win32,60,,,,,,,,,,,,,,,,,,,,,,,,,,,,,,,,1.939955, ,"[""space"",""return""]","[1.7087450000003628,1.9399550000002819]",0,17,17,17,1,,,,,,,
,,,,,derene,мяч,derene.wav,терка,гранат,мяч,black,black,green,derene = колбаса?,0,kavenu,домино,befadu,2,2020-05-13_17h48.34.163,words,2020.1.2,Win32,60,,,,,,,,,,,,,,,,,,,,,,,,,,,,,,,,7,,"[""k"",""a"",""n"",""k"",""a"",""r""]","[3.4747650000003887,3.667095000000245,4.0260950000001685,6.586045000000013,6.698095000000194,6.905030000000352]",0,18,18,18,1,,,,,,,
,,,,,denrete,гвоздь,denrete.wav,самолет,клубок,гвоздь,black,black,green,denrete = гвоздь?,1,asamu,самолет,nevetu,2,2020-05-13_17h48.34.163,words,2020.1.2,Win32,60,,,,,,,,,,,,,,,,,,,,,,,,,,,,,,,,3.4053,asume,"[""a"",""s"",""u"",""m"",""e"",""return""]","[1.2468399999997928,1.4311800000000403,1.8856000000000677,2.3732249999998203,2.4962499999996908,3.4052999999998974]",0,19,19,19,1,,,,,,,
,,,,,befadu,удочка,befadu.wav,мяч,утюг,удочка,black,black,green,befadu = удочка?,1,tekuru,костюм,farimu,2,2020-05-13_17h48.34.163,words,2020.1.2,Win32,60,,,,,,,,,,,,,,,,,,,,,,,,,,,,,,,,3.054175,,"[""return""]",[3.054175000000214],0,20,20,20,1,,,,,,,
,,,,,kankeru,колокол,kankeru.wav,колокол,веер,микрофон,green,black,black,kankeru = костюм?,0,derene,мяч,kavenu,2,2020-05-13_17h48.34.163,words,2020.1.2,Win32,60,,,,,,,,,,,,,,,,,,,,,,,,,,,,,,,,4.232275,derene,"[""d"",""e"",""r"",""e"",""n"",""e"",""return""]","[1.8985350000002654,2.0645650000001297,3.1297199999999066,3.313814999999977,3.702850000000126,3.8235850000000937,4.232274999999845]",0,21,21,21,1,,,,,,,
,,,,,kasfine,клубок,kasfine.wav,компас,ведро,клубок,black,black,green,kasfine = клубок?,1,denrete,гвоздь,asamu,2,2020-05-13_17h48.34.163,words,2020.1.2,Win32,60,,,,,,,,,,,,,,,,,,,,,,,,,,,,,,,,6.138915,dertene,"[""d"",""e"",""r"",""e"",""backspace"",""t"",""e"",""n"",""e"",""return""]","[1.3830349999998361,1.5391449999997349,2.4994449999999233,3.2270699999999124,4.196254999999837,5.33170999999993,5.611134999999649,5.7328449999999975,5.8430349999998725,6.138914999999997]",0,22,22,22,1,,,,,,,
,,,,,akufu,маяк,akufu.wav,маяк,наперсток,клубок,green,black,black,akufu = гранат?,0,kambipu,стол,potabu,2,2020-05-13_17h48.34.163,words,2020.1.2,Win32,60,,,,,,,,,,,,,,,,,,,,,,,,,,,,,,,,7,,"[""k"",""o"",""m"",""b"",""i"",""n"",""e""]","[3.1737100000000282,3.365969999999834,4.317265000000134,5.878139999999803,6.215909999999894,6.649319999999989,6.766225000000304]",0,23,23,23,1,,,,,,,
,,,,,tuvene,компас,tuvene.wav,компас,клубок,костыль,green,black,black,tuvene = компас?,1,ediste,гранат,avade,2,2020-05-13_17h48.34.163,words,2020.1.2,Win32,60,,,,,,,,,,,,,,,,,,,,,,,,,,,,,,,,4.567755,esiste,"[""e"",""s"",""i"",""s"",""t"",""e"",""return""]","[2.855684999999994,3.1604299999999057,3.5609950000002755,3.799750000000131,4.147664999999961,4.264760000000024,4.567755000000034]",0,24,24,24,1,,,,,,,
,,,,,tinfetu,аквариум,tinfetu.wav,свисток,аквариум,конверт,black,green,black,tinfetu = аквариум?,1,akete,ремень,morvidu,2,2020-05-13_17h48.34.163,words,2020.1.2,Win32,60,,,,,,,,,,,,,,,,,,,,,,,,,,,,,,,,5.174165,asere,"[""a"",""s"",""e"",""t"",""e"",""backspace"",""backspace"",""r"",""e"",""return""]","[1.8047699999997349,2.446570000000065,3.270654999999806,3.8303399999999783,3.9349499999998443,4.612904999999955,4.756350000000111,4.886160000000018,5.03832999999986,5.174164999999903]",0,25,25,25,1,,,,,,,
,,,,,sankadu,качели,sankadu.wav,самолет,качели,пистолет,black,green,black,sankadu = качели?,1,bokente,одуванчик,kovaru,2,2020-05-13_17h48.34.163,words,2020.1.2,Win32,60,,,,,,,,,,,,,,,,,,,,,,,,,,,,,,,,7,,"[""b"",""o"",""backspace"",""backspace""]","[1.934809999999743,3.038959999999861,6.309169999999995,6.701069999999618]",0,26,26,26,1,,,,,,,
,,,,,vantimu,костыль,vantimu.wav,костыль,пальма,кроссворд,green,black,black,vantimu = костыль?,1,farantu,пистолет,makevu,2,2020-05-13_17h48.34.163,words,2020.1.2,Win32,60,,,,,,,,,,,,,,,,,,,,,,,,,,,,,,,,3.78587,farantu,"[""f"",""a"",""r"",""a"",""n"",""t"",""u"",""return""]","[1.963760000000093,2.066849999999704,2.4017549999998664,2.538434999999936,3.001705000000129,3.217769999999746,3.385739999999714,3.7858699999997043]",0,27,27,27,1,,,,,,,
,,,,,derartu,стрела,derartu.wav,костюм,стрела,колбаса,black,green,black,derartu = стрела?,1,rantare,флаг,topeme,2,2020-05-13_17h48.34.163,words,2020.1.2,Win32,60,,,,,,,,,,,,,,,,,,,,,,,,,,,,,,,,6.019565,rankare,"[""r"",""a"",""n"",""k"",""a"",""r"",""e"",""return""]","[2.247609999999895,3.3243099999999686,4.152189999999791,4.931340000000091,5.300194999999803,5.548354999999901,5.636344999999892,6.019565000000057]",0,28,28,28,1,,,,,,,
,,,,,reskane,свисток,reskane.wav,пальма,стол,свисток,black,black,green,reskane = ведро?,0,pafinu,терка,reskane,2,2020-05-13_17h48.34.163,words,2020.1.2,Win32,60,,,,,,,,,,,,,,,,,,,,,,,,,,,,,,,,4.797435,pafinu,"[""p"",""a"",""f"",""i"",""n"",""u"",""return""]","[1.8702800000000934,2.030224999999973,3.0693450000003395,3.533350000000155,4.198069999999916,4.4052700000002005,4.79743499999995]",0,29,29,29,1,,,,,,,
,,,,,felkure,конверт,felkure.wav,мяч,конверт,компас,black,green,black,felkure = конверт?,1,ekiste,веер,apokte,2,2020-05-13_17h48.34.163,words,2020.1.2,Win32,60,,,,,,,,,,,,,,,,,,,,,,,,,,,,,,,,6.215995,ekiste,"[""e"",""k"",""i"",""s"",""t"",""e"",""return""]","[4.3602249999999,5.24031500000001,5.4159850000000915,5.513675000000148,5.799869999999828,5.895919999999933,6.215995000000021]",0,30,30,30,1,,,,,,,
,,,,,topeme,наперсток,topeme.wav,маяк,коридор,наперсток,black,black,green,topeme = домино?,0,koderde,микрофон,kasfine,2,2020-05-13_17h48.34.163,words,2020.1.2,Win32,60,,,,,,,,,,,,,,,,,,,,,,,,,,,,,,,,5.96667,koderde,"[""k"",""o"",""d"",""e"",""r"",""d"",""e"",""return""]","[3.4302150000003166,3.6066749999999956,3.934819999999945,4.150700000000143,4.945255000000088,5.541780000000017,5.69566500000019,5.966670000000249]",0,31,31,31,1,,,,,,,
,,,,,pafinu,терка,pafinu.wav,терка,домино,качели,green,black,black,pafinu = терка?,1,reskane,свисток,pafinu,2,2020-05-13_17h48.34.163,words,2020.1.2,Win32,60,,,,,,,,,,,,,,,,,,,,,,,,,,,,,,,,5.29943,reskine,"[""r"",""e"",""s"",""k"",""i"",""n"",""e"",""return""]","[2.3964599999999336,2.5558249999999134,2.818919999999707,4.213249999999789,4.395719999999983,4.643734999999651,4.867284999999811,5.299430000000029]",0,32,32,32,1,,,,,,,
,,,,,bokente,одуванчик,bokente.wav,одуванчик,компас,гвоздь,green,black,black,bokente = одуванчик?,1,kovaru,ведро,akufu,2,2020-05-13_17h48.34.163,words,2020.1.2,Win32,60,,,,,,,,,,,,,,,,,,,,,,,,,,,,,,,,1.75212,,"[""return""]",[1.7521200000001045],0,33,33,33,1,,,,,,,
,,,,,farimu,копилка,farimu.wav,шашлык,копилка,веер,black,green,black,farimu = копилка?,1,enkene,коридор,eskife,2,2020-05-13_17h48.34.163,words,2020.1.2,Win32,60,,,,,,,,,,,,,,,,,,,,,,,,,,,,,,,,2.267175, ,"[""space"",""return""]","[2.099079999999958,2.267174999999952]",0,34,34,34,1,,,,,,,
,,,,,akete,ремень,akete.wav,маяк,шашлык,ремень,black,black,green,akete = утюг?,0,morvidu,точилка,sankadu,2,2020-05-13_17h48.34.163,words,2020.1.2,Win32,60,,,,,,,,,,,,,,,,,,,,,,,,,,,,,,,,2.45888, ,"[""space"",""return""]","[2.2668650000000525,2.4588800000001356]",0,35,35,35,1,,,,,,,
,,,,,koderde,микрофон,koderde.wav,стрела,микрофон,пальма,black,green,black,koderde = наперсток?,0,kasfine,клубок,denrete,2,2020-05-13_17h48.34.163,words,2020.1.2,Win32,60,,,,,,,,,,,,,,,,,,,,,,,,,,,,,,,,4.69712, ,"[""space"",""return""]","[4.497150000000147,4.6971199999998134]",0,36,36,36,1,,,,,,,
,,,,,ediste,гранат,ediste.wav,удочка,шашлык,гранат,black,black,green,ediste = мяч?,0,avade,шприц,vortule,2,2020-05-13_17h48.34.163,words,2020.1.2,Win32,60,,,,,,,,,,,,,,,,,,,,,,,,,,,,,,,,1.65674, ,"[""space"",""return""]","[1.4568249999997533,1.6567399999998997]",0,37,37,37,1,,,,,,,
,,,,,farantu,пистолет,farantu.wav,микрофон,пистолет,одуванчик,black,green,black,farantu = веер?,0,makevu,утюг,tinfetu,2,2020-05-13_17h48.34.163,words,2020.1.2,Win32,60,,,,,,,,,,,,,,,,,,,,,,,,,,,,,,,,4.598035,makale,"[""m"",""a"",""k"",""a"",""l"",""e"",""return""]","[1.998149999999896,2.802389999999832,3.498384999999871,3.634335000000192,3.981699999999819,4.165120000000115,4.598034999999982]",0,38,38,38,1,,,,,,,
,,,,,kavitu,мельница,kavitu.wav,аквариум,ремень,мельница,black,black,green,kavitu = коридор?,0,kankeru,колокол,derene,2,2020-05-13_17h48.34.163,words,2020.1.2,Win32,60,,,,,,,,,,,,,,,,,,,,,,,,,,,,,,,,4.53189,kankaru,"[""k"",""a"",""n"",""k"",""a"",""r"",""u"",""return""]","[2.248175000000174,2.4186399999998685,2.7156599999998434,3.299670000000333,3.433219999999892,3.7812549999998737,4.044969999999921,4.531889999999748]",0,39,39,39,1,,,,,,,
,,,,,morvidu,точилка,morvidu.wav,шашлык,точилка,свисток,black,green,black,morvidu = точилка?,1,sankadu,качели,bokente,2,2020-05-13_17h48.34.163,words,2020.1.2,Win32,60,,,,,,,,,,,,,,,,,,,,,,,,,,,,,,,,,,,,,,,,,right,3.07524,0,0,0,0,1
,,,,,kambipu,стол,kambipu.wav,стол,компас,намордник,green,black,black,kambipu = кроссворд?,0,potabu,кроссворд,felkure,2,2020-05-13_17h48.34.163,words,2020.1.2,Win32,60,,,,,,,,,,,,,,,,,,,,,,,,,,,,,,,,,,,,,,,,,right,2.71694,0,1,1,1,1
,,,,,limate,хобот,limate.wav,хобот,роза,точилка,green,black,black,limate = хобот?,1,tuvene,компас,ediste,2,2020-05-13_17h48.34.163,words,2020.1.2,Win32,60,,,,,,,,,,,,,,,,,,,,,,,,,,,,,,,,,,,,,,,,,left,2.925875,0,2,2,2,1
,,,,,nevetu,колбаса,nevetu.wav,колбаса,качели,хобот,green,black,black,nevetu = маяк?,0,derartu,стрела,rantare,2,2020-05-13_17h48.34.163,words,2020.1.2,Win32,60,,,,,,,,,,,,,,,,,,,,,,,,,,,,,,,,,,,,,,,,,right,3.58359,0,3,3,3,1
,,,,,vortule,намордник,vortule.wav,намордник,мельница,домино,green,black,black,vortule = намордник?,1,kavitu,мельница,kankeru,2,2020-05-13_17h48.34.163,words,2020.1.2,Win32,60,,,,,,,,,,,,,,,,,,,,,,,,,,,,,,,,,,,,,,,,,right,1.644,0,4,4,4,1
,,,,,tekuru,костюм,tekuru.wav,маяк,гранат,костюм,black,black,green,tekuru = мельница?,0,farimu,копилка,enkene,2,2020-05-13_17h48.34.163,words,2020.1.2,Win32,60,,,,,,,,,,,,,,,,,,,,,,,,,,,,,,,,,,,,,,,,,right,2.56222,0,5,5,5,1
,,,,,kovaru,ведро,kovaru.wav,костыль,ведро,костюм,black,green,black,kovaru = ремень?,0,akufu,маяк,kambipu,2,2020-05-13_17h48.34.163,words,2020.1.2,Win32,60,,,,,,,,,,,,,,,,,,,,,,,,,,,,,,,,,,,,,,,,,right,1.320175,0,6,6,6,1
,,,,,asamu,самолет,asamu.wav,конверт,наперсток,самолет,black,black,green,asamu = самолет?,1,nevetu,колбаса,derartu,2,2020-05-13_17h48.34.163,words,2020.1.2,Win32,60,,,,,,,,,,,,,,,,,,,,,,,,,,,,,,,,,,,,,,,,,right,3.014535,0,7,7,7,1
,,,,,rantare,флаг,rantare.wav,флаг,стрела,ремень,green,black,black,rantare = флаг?,1,topeme,наперсток,koderde,2,2020-05-13_17h48.34.163,words,2020.1.2,Win32,60,,,,,,,,,,,,,,,,,,,,,,,,,,,,,,,,,,,,,,,,,right,0.872375,0,8,8,8,1
,,,,,kavenu,домино,kavenu.wav,стрела,колокол,домино,black,black,green,kavenu = стол?,0,befadu,удочка,tekuru,2,2020-05-13_17h48.34.163,words,2020.1.2,Win32,60,,,,,,,,,,,,,,,,,,,,,,,,,,,,,,,,,,,,,,,,,right,3.183155,0,9,9,9,1
,,,,,avade,шприц,avade.wav,одуванчик,флаг,шприц,black,black,green,avade = шприц?,1,vortule,намордник,kavitu,2,2020-05-13_17h48.34.163,words,2020.1.2,Win32,60,,,,,,,,,,,,,,,,,,,,,,,,,,,,,,,,,,,,,,,,,right,1.393735,0,10,10,10,1
,,,,,apokte,пальма,apokte.wav,шприц,свисток,пальма,black,black,green,apokte = пальма?,1,limate,хобот,tuvene,2,2020-05-13_17h48.34.163,words,2020.1.2,Win32,60,,,,,,,,,,,,,,,,,,,,,,,,,,,,,,,,,,,,,,,,,right,1.75583,0,11,11,11,1
,,,,,eskife,роза,eskife.wav,мельница,коридор,роза,black,black,green,eskife = роза?,1,mubale,шашлык,vantimu,2,2020-05-13_17h48.34.163,words,2020.1.2,Win32,60,,,,,,,,,,,,,,,,,,,,,,,,,,,,,,,,,,,,,,,,,right,1.29807,0,12,12,12,1
,,,,,mubale,шашлык,mubale.wav,шашлык,стрела,копилка,green,black,black,mubale = шашлык?,1,vantimu,костыль,farantu,2,2020-05-13_17h48.34.163,words,2020.1.2,Win32,60,,,,,,,,,,,,,,,,,,,,,,,,,,,,,,,,,,,,,,,,,,,0,13,13,13,1
,,,,,makevu,утюг,makevu.wav,утюг,аквариум,стрела,green,black,black,makevu = свисток?,0,tinfetu,аквариум,akete,2,2020-05-13_17h48.34.163,words,2020.1.2,Win32,60,,,,,,,,,,,,,,,,,,,,,,,,,,,,,,,,,,,,,,,,,right,1.383815,0,14,14,14,1
,,,,,enkene,коридор,enkene.wav,коридор,удочка,роза,green,black,black,enkene = колокол?,0,eskife,роза,mubale,2,2020-05-13_17h48.34.163,words,2020.1.2,Win32,60,,,,,,,,,,,,,,,,,,,,,,,,,,,,,,,,,,,,,,,,,right,1.526185,0,15,15,15,1
,,,,,ekiste,веер,ekiste.wav,веер,шприц,костюм,green,black,black,ekiste = микрофон?,0,apokte,пальма,limate,2,2020-05-13_17h48.34.163,words,2020.1.2,Win32,60,,,,,,,,,,,,,,,,,,,,,,,,,,,,,,,,,,,,,,,,,right,3.05684,0,16,16,16,1
,,,,,potabu,кроссворд,potabu.wav,кроссворд,гвоздь,мельница,green,black,black,potabu = пистолет?,0,felkure,конверт,ekiste,2,2020-05-13_17h48.34.163,words,2020.1.2,Win32,60,,,,,,,,,,,,,,,,,,,,,,,,,,,,,,,,,,,,,,,,,right,2.605895,0,17,17,17,1
,,,,,derene,мяч,derene.wav,терка,гранат,мяч,black,black,green,derene = колбаса?,0,kavenu,домино,befadu,2,2020-05-13_17h48.34.163,words,2020.1.2,Win32,60,,,,,,,,,,,,,,,,,,,,,,,,,,,,,,,,,,,,,,,,,left,1.386,0,18,18,18,1
,,,,,denrete,гвоздь,denrete.wav,самолет,клубок,гвоздь,black,black,green,denrete = гвоздь?,1,asamu,самолет,nevetu,2,2020-05-13_17h48.34.163,words,2020.1.2,Win32,60,,,,,,,,,,,,,,,,,,,,,,,,,,,,,,,,,,,,,,,,,right,1.256695,0,19,19,19,1
,,,,,befadu,удочка,befadu.wav,мяч,утюг,удочка,black,black,green,befadu = удочка?,1,tekuru,костюм,farimu,2,2020-05-13_17h48.34.163,words,2020.1.2,Win32,60,,,,,,,,,,,,,,,,,,,,,,,,,,,,,,,,,,,,,,,,,right,1.448615,0,20,20,20,1
,,,,,kankeru,колокол,kankeru.wav,колокол,веер,микрофон,green,black,black,kankeru = костюм?,0,derene,мяч,kavenu,2,2020-05-13_17h48.34.163,words,2020.1.2,Win32,60,,,,,,,,,,,,,,,,,,,,,,,,,,,,,,,,,,,,,,,,,right,2.00157,0,21,21,21,1
,,,,,kasfine,клубок,kasfine.wav,компас,ведро,клубок,black,black,green,kasfine = клубок?,1,denrete,гвоздь,asamu,2,2020-05-13_17h48.34.163,words,2020.1.2,Win32,60,,,,,,,,,,,,,,,,,,,,,,,,,,,,,,,,,,,,,,,,,right,1.445275,0,22,22,22,1
,,,,,akufu,маяк,akufu.wav,маяк,наперсток,клубок,green,black,black,akufu = гранат?,0,kambipu,стол,potabu,2,2020-05-13_17h48.34.163,words,2020.1.2,Win32,60,,,,,,,,,,,,,,,,,,,,,,,,,,,,,,,,,,,,,,,,,right,1.140575,0,23,23,23,1
,,,,,tuvene,компас,tuvene.wav,компас,клубок,костыль,green,black,black,tuvene = компас?,1,ediste,гранат,avade,2,2020-05-13_17h48.34.163,words,2020.1.2,Win32,60,,,,,,,,,,,,,,,,,,,,,,,,,,,,,,,,,,,,,,,,,right,1.47473,0,24,24,24,1
,,,,,tinfetu,аквариум,tinfetu.wav,свисток,аквариум,конверт,black,green,black,tinfetu = аквариум?,1,akete,ремень,morvidu,2,2020-05-13_17h48.34.163,words,2020.1.2,Win32,60,,,,,,,,,,,,,,,,,,,,,,,,,,,,,,,,,,,,,,,,,right,1.59169,0,25,25,25,1
,,,,,sankadu,качели,sankadu.wav,самолет,качели,пистолет,black,green,black,sankadu = качели?,1,bokente,одуванчик,kovaru,2,2020-05-13_17h48.34.163,words,2020.1.2,Win32,60,,,,,,,,,,,,,,,,,,,,,,,,,,,,,,,,,,,,,,,,,right,1.259355,0,26,26,26,1
,,,,,vantimu,костыль,vantimu.wav,костыль,пальма,кроссворд,green,black,black,vantimu = костыль?,1,farantu,пистолет,makevu,2,2020-05-13_17h48.34.163,words,2020.1.2,Win32,60,,,,,,,,,,,,,,,,,,,,,,,,,,,,,,,,,,,,,,,,,right,2.814365,0,27,27,27,1
,,,,,derartu,стрела,derartu.wav,костюм,стрела,колбаса,black,green,black,derartu = стрела?,1,rantare,флаг,topeme,2,2020-05-13_17h48.34.163,words,2020.1.2,Win32,60,,,,,,,,,,,,,,,,,,,,,,,,,,,,,,,,,,,,,,,,,left,2.286485,0,28,28,28,1
,,,,,reskane,свисток,reskane.wav,пальма,стол,свисток,black,black,green,reskane = ведро?,0,pafinu,терка,reskane,2,2020-05-13_17h48.34.163,words,2020.1.2,Win32,60,,,,,,,,,,,,,,,,,,,,,,,,,,,,,,,,,,,,,,,,,left,2.94162,0,29,29,29,1
,,,,,felkure,конверт,felkure.wav,мяч,конверт,компас,black,green,black,felkure = конверт?,1,ekiste,веер,apokte,2,2020-05-13_17h48.34.163,words,2020.1.2,Win32,60,,,,,,,,,,,,,,,,,,,,,,,,,,,,,,,,,,,,,,,,,right,1.31433,0,30,30,30,1
,,,,,topeme,наперсток,topeme.wav,маяк,коридор,наперсток,black,black,green,topeme = домино?,0,koderde,микрофон,kasfine,2,2020-05-13_17h48.34.163,words,2020.1.2,Win32,60,,,,,,,,,,,,,,,,,,,,,,,,,,,,,,,,,,,,,,,,,right,2.210385,0,31,31,31,1
,,,,,pafinu,терка,pafinu.wav,терка,домино,качели,green,black,black,pafinu = терка?,1,reskane,свисток,pafinu,2,2020-05-13_17h48.34.163,words,2020.1.2,Win32,60,,,,,,,,,,,,,,,,,,,,,,,,,,,,,,,,,,,,,,,,,right,1.002775,0,32,32,32,1
,,,,,bokente,одуванчик,bokente.wav,одуванчик,компас,гвоздь,green,black,black,bokente = одуванчик?,1,kovaru,ведро,akufu,2,2020-05-13_17h48.34.163,words,2020.1.2,Win32,60,,,,,,,,,,,,,,,,,,,,,,,,,,,,,,,,,,,,,,,,,right,2.4132,0,33,33,33,1
,,,,,farimu,копилка,farimu.wav,шашлык,копилка,веер,black,green,black,farimu = копилка?,1,enkene,коридор,eskife,2,2020-05-13_17h48.34.163,words,2020.1.2,Win32,60,,,,,,,,,,,,,,,,,,,,,,,,,,,,,,,,,,,,,,,,,right,2.101415,0,34,34,34,1
,,,,,akete,ремень,akete.wav,маяк,шашлык,ремень,black,black,green,akete = утюг?,0,morvidu,точилка,sankadu,2,2020-05-13_17h48.34.163,words,2020.1.2,Win32,60,,,,,,,,,,,,,,,,,,,,,,,,,,,,,,,,,,,,,,,,,right,1.09364,0,35,35,35,1
,,,,,koderde,микрофон,koderde.wav,стрела,микрофон,пальма,black,green,black,koderde = наперсток?,0,kasfine,клубок,denrete,2,2020-05-13_17h48.34.163,words,2020.1.2,Win32,60,,,,,,,,,,,,,,,,,,,,,,,,,,,,,,,,,,,,,,,,,right,1.080065,0,36,36,36,1
,,,,,ediste,гранат,ediste.wav,удочка,шашлык,гранат,black,black,green,ediste = мяч?,0,avade,шприц,vortule,2,2020-05-13_17h48.34.163,words,2020.1.2,Win32,60,,,,,,,,,,,,,,,,,,,,,,,,,,,,,,,,,,,,,,,,,right,1.18713,0,37,37,37,1
,,,,,farantu,пистолет,farantu.wav,микрофон,пистолет,одуванчик,black,green,black,farantu = веер?,0,makevu,утюг,tinfetu,2,2020-05-13_17h48.34.163,words,2020.1.2,Win32,60,,,,,,,,,,,,,,,,,,,,,,,,,,,,,,,,,,,,,,,,,right,1.83088,0,38,38,38,1
,,,,,kavitu,мельница,kavitu.wav,аквариум,ремень,мельница,black,black,green,kavitu = коридор?,0,kankeru,колокол,derene,2,2020-05-13_17h48.34.163,words,2020.1.2,Win32,60,,,,,,,,,,,,,,,,,,,,,,,,,,,,,,,,,,,,,,,,,left,2.377285,0,39,39,39,1
