trials_2.thisRepN,trials_2.thisTrialN,trials_2.thisN,trials_2.thisIndex,trials_2.ran,AL,L1,sound_path,AFC1,AFC2,AFC3,AFC1_color,AFC2_color,AFC3_color,recognition_text,recognition_correctness,recall_AL,recall_L1,SEM_AL,variant,date,expName,psychopyVersion,OS,frameRate,key_resp_2.keys,key_resp_2.rt,trials_3.thisRepN,trials_3.thisTrialN,trials_3.thisN,trials_3.thisIndex,trials_3.ran,key_resp.keys,key_resp.rt,recall_rt,recall_text,trials.thisRepN,trials.thisTrialN,trials.thisN,trials.thisIndex,trials.ran,trials_4.thisRepN,trials_4.thisTrialN,trials_4.thisN,trials_4.thisIndex,trials_4.ran,rows,key_resp_10.keys,key_resp_10.rt,key_resp_3.keys,key_resp_3.rt,trials_5.thisRepN,trials_5.thisTrialN,trials_5.thisN,trials_5.thisIndex,trials_5.ran,recall_test_rt,recall_test_text,key_resp_4.keys,key_resp_4.rt,trials_6.thisRepN,trials_6.thisTrialN,trials_6.thisN,trials_6.thisIndex,trials_6.ran,key_resp_5.keys,key_resp_5.rt,trials_7.thisRepN,trials_7.thisTrialN,trials_7.thisN,trials_7.thisIndex,trials_7.ran
0,0,0,0,1,invaltu,флаг,invaltu.wav,ремень,флаг,стрела,black,green,black,invaltu = колокол?,0,tivere,конверт,erfate,3,2020-05-13_13h51.47.770,words,2020.1.2,Win32,60,,,,,,,,,,,,,,,,,,,,,,,,,,,,,,,,,,,,,,,,,,,,,,,
0,1,1,1,1,panabu,свисток,panabu.wav,свисток,пальма,стол,green,black,black,panabu = свисток?,1,savere,шашлык,vembare,3,2020-05-13_13h51.47.770,words,2020.1.2,Win32,60,,,,,,,,,,,,,,,,,,,,,,,,,,,,,,,,,,,,,,,,,,,,,,,
0,2,2,2,1,kaltane,стрела,kaltane.wav,костюм,стрела,колбаса,black,green,black,kaltane = стрела?,1,sevade,утюг,tevone,3,2020-05-13_13h51.47.770,words,2020.1.2,Win32,60,,,,,,,,,,,,,,,,,,,,,,,,,,,,,,,,,,,,,,,,,,,,,,,
0,3,3,3,1,aderu,пистолет,aderu.wav,пистолет,одуванчик,микрофон,green,black,black,aderu = пистолет?,1,panabu,свисток,savere,3,2020-05-13_13h51.47.770,words,2020.1.2,Win32,60,,,,,,,,,,,,,,,,,,,,,,,,,,,,,,,,,,,,,,,,,,,,,,,
0,4,4,4,1,enkalu,пальма,enkalu.wav,шприц,пальма,свисток,black,green,black,enkalu = пальма?,1,pakanu,мельница,lornitu,3,2020-05-13_13h51.47.770,words,2020.1.2,Win32,60,,,,,,,,,,,,,,,,,,,,,,,,,,,,,,,,,,,,,,,,,,,,,,,
0,5,5,5,1,senkide,мяч,senkide.wav,мяч,гранат,терка,green,black,black,senkide = стол?,0,maviru,ремень,pentave,3,2020-05-13_13h51.47.770,words,2020.1.2,Win32,60,,,,,,,,,,,,,,,,,,,,,,,,,,,,,,,,,,,,,,,,,,,,,,,
0,6,6,6,1,akastu,ведро,akastu.wav,костыль,костюм,ведро,black,black,green,akastu = ведро?,1,aderu,пистолет,panabu,3,2020-05-13_13h51.47.770,words,2020.1.2,Win32,60,,,,,,,,,,,,,,,,,,,,,,,,,,,,,,,,,,,,,,,,,,,,,,,
0,7,7,7,1,takuru,маяк,takuru.wav,наперсток,маяк,клубок,black,green,black,takuru = маяк?,1,larantu,веер,adiste,3,2020-05-13_13h51.47.770,words,2020.1.2,Win32,60,,,,,,,,,,,,,,,,,,,,,,,,,,,,,,,,,,,,,,,,,,,,,,,
0,8,8,8,1,pakanu,мельница,pakanu.wav,мельница,аквариум,ремень,green,black,black,pakanu = мельница?,1,lornitu,микрофон,madide,3,2020-05-13_13h51.47.770,words,2020.1.2,Win32,60,,,,,,,,,,,,,,,,,,,,,,,,,,,,,,,,,,,,,,,,,,,,,,,
,,,,,invaltu,флаг,invaltu.wav,ремень,флаг,стрела,black,green,black,invaltu = колокол?,0,tivere,конверт,erfate,3,2020-05-13_13h51.47.770,words,2020.1.2,Win32,60,down,1.731925,0,0,0,0,1,,,,,,,,,,,,,,,,,,,,,,,,,,,,,,,,,,,,,,,,
,,,,,panabu,свисток,panabu.wav,свисток,пальма,стол,green,black,black,panabu = свисток?,1,savere,шашлык,vembare,3,2020-05-13_13h51.47.770,words,2020.1.2,Win32,60,left,3.07141,0,1,1,1,1,,,,,,,,,,,,,,,,,,,,,,,,,,,,,,,,,,,,,,,,
,,,,,kaltane,стрела,kaltane.wav,костюм,стрела,колбаса,black,green,black,kaltane = стрела?,1,sevade,утюг,tevone,3,2020-05-13_13h51.47.770,words,2020.1.2,Win32,60,down,2.59182,0,2,2,2,1,,,,,,,,,,,,,,,,,,,,,,,,,,,,,,,,,,,,,,,,
,,,,,aderu,пистолет,aderu.wav,пистолет,одуванчик,микрофон,green,black,black,aderu = пистолет?,1,panabu,свисток,savere,3,2020-05-13_13h51.47.770,words,2020.1.2,Win32,60,left,1.89044,0,3,3,3,1,,,,,,,,,,,,,,,,,,,,,,,,,,,,,,,,,,,,,,,,
,,,,,enkalu,пальма,enkalu.wav,шприц,пальма,свисток,black,green,black,enkalu = пальма?,1,pakanu,мельница,lornitu,3,2020-05-13_13h51.47.770,words,2020.1.2,Win32,60,down,2.63969,0,4,4,4,1,,,,,,,,,,,,,,,,,,,,,,,,,,,,,,,,,,,,,,,,
,,,,,senkide,мяч,senkide.wav,мяч,гранат,терка,green,black,black,senkide = стол?,0,maviru,ремень,pentave,3,2020-05-13_13h51.47.770,words,2020.1.2,Win32,60,,,0,5,5,5,1,,,,,,,,,,,,,,,,,,,,,,,,,,,,,,,,,,,,,,,,
,,,,,akastu,ведро,akastu.wav,костыль,костюм,ведро,black,black,green,akastu = ведро?,1,aderu,пистолет,panabu,3,2020-05-13_13h51.47.770,words,2020.1.2,Win32,60,right,2.14562,0,6,6,6,1,,,,,,,,,,,,,,,,,,,,,,,,,,,,,,,,,,,,,,,,
,,,,,takuru,маяк,takuru.wav,наперсток,маяк,клубок,black,green,black,takuru = маяк?,1,larantu,веер,adiste,3,2020-05-13_13h51.47.770,words,2020.1.2,Win32,60,down,1.90281,0,7,7,7,1,,,,,,,,,,,,,,,,,,,,,,,,,,,,,,,,,,,,,,,,
,,,,,pakanu,мельница,pakanu.wav,мельница,аквариум,ремень,green,black,black,pakanu = мельница?,1,lornitu,микрофон,madide,3,2020-05-13_13h51.47.770,words,2020.1.2,Win32,60,right,1.72281,0,8,8,8,1,,,,,,,,,,,,,,,,,,,,,,,,,,,,,,,,,,,,,,,,
,,,,,beskadu,колбаса,beskadu.wav,качели,хобот,колбаса,black,black,green,beskadu = колбаса?,1,enkalu,пальма,pakanu,3,2020-05-13_13h51.47.770,words,2020.1.2,Win32,60,right,1.998645,0,9,9,9,1,,,,,,,,,,,,,,,,,,,,,,,,,,,,,,,,,,,,,,,,
,,,,,invaltu,флаг,invaltu.wav,ремень,флаг,стрела,black,green,black,invaltu = колокол?,0,tivere,конверт,erfate,3,2020-05-13_13h51.47.770,words,2020.1.2,Win32,60,,,,,,,,"[""i"",""n"",""v"",""a"",""t"",""u"",""return""]","[1.435435000108555,1.8935700000729412,2.610245000105351,3.479425000026822,3.8952349999453872,4.16601000004448,4.831454999977723]",4.831455,invatu,0,0,0,0,1,,,,,,,,,,,,,,,,,,,,,,,,,,,,,,,
,,,,,panabu,свисток,panabu.wav,свисток,пальма,стол,green,black,black,panabu = свисток?,1,savere,шашлык,vembare,3,2020-05-13_13h51.47.770,words,2020.1.2,Win32,60,,,,,,,,"[""t"",""a"",""k"",""u"",""r"",""u"",""return""]","[2.225845000008121,2.9768500002101064,3.4250700001139194,3.677065000170842,3.9287200001999736,4.1713100001215935,5.625425000209361]",5.625425,takuru,0,1,1,1,1,,,,,,,,,,,,,,,,,,,,,,,,,,,,,,,
,,,,,kaltane,стрела,kaltane.wav,костюм,стрела,колбаса,black,green,black,kaltane = стрела?,1,sevade,утюг,tevone,3,2020-05-13_13h51.47.770,words,2020.1.2,Win32,60,,,,,,,,"[""k"",""backspace"",""v"",""backspace"",""c"",""a"",""l"",""t"",""a"",""n"",""e"",""return""]","[2.2698349999263883,2.8283649999648333,3.0473849999252707,3.615019999910146,3.7601349998731166,3.9677349999547005,4.126719999825582,4.427249999949709,4.5454499998595566,4.749224999919534,4.9337799998465925,6.563799999887124]",6.5638,caltane,0,2,2,2,1,,,,,,,,,,,,,,,,,,,,,,,,,,,,,,,
,,,,,aderu,пистолет,aderu.wav,пистолет,одуванчик,микрофон,green,black,black,aderu = пистолет?,1,panabu,свисток,savere,3,2020-05-13_13h51.47.770,words,2020.1.2,Win32,60,,,,,,,,"[""a"",""r"",""u"",""d"",""u"",""backspace"",""backspace"",""backspace"",""a""]","[1.3656999999657273,1.9312500001396984,2.4615950000006706,2.7427799999713898,3.465654999949038,5.494590000016615,5.9430649999994785,6.064735000021756,6.608735000016168]",7,,0,3,3,3,1,,,,,,,,,,,,,,,,,,,,,,,,,,,,,,,
,,,,,enkalu,пальма,enkalu.wav,шприц,пальма,свисток,black,green,black,enkalu = пальма?,1,pakanu,мельница,lornitu,3,2020-05-13_13h51.47.770,words,2020.1.2,Win32,60,,,,,,,,"[""m"",""a"",""l"",""t"",""u"",""n"",""e"",""return""]","[3.6618650001473725,3.8502250001765788,4.043850000016391,4.479585000080988,4.779684999957681,5.13078000000678,5.263800000073388,6.0916800000704825]",6.09168,maltune,0,4,4,4,1,,,,,,,,,,,,,,,,,,,,,,,,,,,,,,,
,,,,,senkide,мяч,senkide.wav,мяч,гранат,терка,green,black,black,senkide = стол?,0,maviru,ремень,pentave,3,2020-05-13_13h51.47.770,words,2020.1.2,Win32,60,,,,,,,,"[""c"",""i"",""k"",""i"",""d"",""e"",""return""]","[1.8980700001120567,2.3338150000199676,2.6418300000950694,3.991179999895394,4.2114599999040365,4.3168649999424815,4.840709999902174]",4.84071,cikide,0,5,5,5,1,,,,,,,,,,,,,,,,,,,,,,,,,,,,,,,
,,,,,akastu,ведро,akastu.wav,костыль,костюм,ведро,black,black,green,akastu = ведро?,1,aderu,пистолет,panabu,3,2020-05-13_13h51.47.770,words,2020.1.2,Win32,60,,,,,,,,"[""space"",""return""]","[3.227845000103116,3.4822949999943376]",3.482295, ,0,6,6,6,1,,,,,,,,,,,,,,,,,,,,,,,,,,,,,,,
,,,,,takuru,маяк,takuru.wav,наперсток,маяк,клубок,black,green,black,takuru = маяк?,1,larantu,веер,adiste,3,2020-05-13_13h51.47.770,words,2020.1.2,Win32,60,,,,,,,,"[""n"",""a"",""backspace"",""backspace"",""m"",""a"",""k"",""u"",""l"",""e"",""d"",""return""]","[2.526205000001937,2.7757800000254065,3.9147200000006706,4.031895000021905,4.3941999999806285,4.627250000135973,5.079110000049695,5.363890000153333,5.681285000173375,5.932220000075176,6.1325950000900775,6.772880000062287]",6.77288,makuled,0,7,7,7,1,,,,,,,,,,,,,,,,,,,,,,,,,,,,,,,
,,,,,pakanu,мельница,pakanu.wav,мельница,аквариум,ремень,green,black,black,pakanu = мельница?,1,lornitu,микрофон,madide,3,2020-05-13_13h51.47.770,words,2020.1.2,Win32,60,,,,,,,,"[""p"",""a"",""k"",""u"",""d"",""u"",""return""]","[1.9836649999488145,2.218509999802336,2.5024499997962266,2.977879999903962,4.44469999987632,4.677489999914542,5.384799999883398]",5.3848,pakudu,0,8,8,8,1,,,,,,,,,,,,,,,,,,,,,,,,,,,,,,,
,,,,,beskadu,колбаса,beskadu.wav,качели,хобот,колбаса,black,black,green,beskadu = колбаса?,1,enkalu,пальма,pakanu,3,2020-05-13_13h51.47.770,words,2020.1.2,Win32,60,,,,,,,,"[""s"",""i"",""n"",""i"",""k"",""e"",""return""]","[3.6625399999320507,3.9289049999788404,4.3275849998462945,5.254740000003949,5.51090499991551,5.710904999868944,6.118614999810234]",6.118615,sinike,0,9,9,9,1,,,,,,,,,,,,,,,,,,,,,,,,,,,,,,,
,,,,,,,,,,,,,,,,,,,3,2020-05-13_13h51.47.770,words,2020.1.2,Win32,60,,,,,,,,,,,,,,,,,0,0,0,0,1,0:10,,,,,,,,,,,,,,,,,,,,,,,,,
0,0,0,0,1,renape,кроссворд,renape.wav,кроссворд,гвоздь,мельница,green,black,black,renape = кроссворд?,1,kanvidu,клубок,enkade,3,2020-05-13_13h51.47.770,words,2020.1.2,Win32,60,,,,,,,,,,,,,,,,,,,,,,,,,,,,,,,,,,,,,,,,,,,,,,,
0,1,1,1,1,ovarde,коридор,ovarde.wav,роза,коридор,удочка,black,green,black,ovarde = коридор?,1,feranu,наперсток,nukene,3,2020-05-13_13h51.47.770,words,2020.1.2,Win32,60,,,,,,,,,,,,,,,,,,,,,,,,,,,,,,,,,,,,,,,,,,,,,,,
0,2,2,2,1,nukene,колокол,nukene.wav,микрофон,колокол,веер,black,green,black,nukene = копилка?,0,enkontu,гранат,beskadu,3,2020-05-13_13h51.47.770,words,2020.1.2,Win32,60,,,,,,,,,,,,,,,,,,,,,,,,,,,,,,,,,,,,,,,,,,,,,,,
0,3,3,3,1,tivere,конверт,tivere.wav,мяч,компас,конверт,black,black,green,tivere = костыль?,0,erfate,самолет,renape,3,2020-05-13_13h51.47.770,words,2020.1.2,Win32,60,,,,,,,,,,,,,,,,,,,,,,,,,,,,,,,,,,,,,,,,,,,,,,,
0,4,4,4,1,sevade,утюг,sevade.wav,утюг,стрела,аквариум,green,black,black,sevade = утюг?,1,tevone,копилка,favatu,3,2020-05-13_13h51.47.770,words,2020.1.2,Win32,60,,,,,,,,,,,,,,,,,,,,,,,,,,,,,,,,,,,,,,,,,,,,,,,
0,5,5,5,1,enkade,точилка,enkade.wav,шашлык,свисток,точилка,black,black,green,enkade = точилка?,1,takuru,маяк,larantu,3,2020-05-13_13h51.47.770,words,2020.1.2,Win32,60,,,,,,,,,,,,,,,,,,,,,,,,,,,,,,,,,,,,,,,,,,,,,,,
0,6,6,6,1,adiste,костюм,adiste.wav,маяк,гранат,костюм,black,black,green,adiste = хобот?,0,kaltane,стрела,sevade,3,2020-05-13_13h51.47.770,words,2020.1.2,Win32,60,,,,,,,,,,,,,,,,,,,,,,,,,,,,,,,,,,,,,,,,,,,,,,,
0,7,7,7,1,madide,домино,madide.wav,стрела,колокол,домино,black,black,green,madide = флаг?,0,devinde,стол,senkide,3,2020-05-13_13h51.47.770,words,2020.1.2,Win32,60,,,,,,,,,,,,,,,,,,,,,,,,,,,,,,,,,,,,,,,,,,,,,,,
,,,,,renape,кроссворд,renape.wav,кроссворд,гвоздь,мельница,green,black,black,renape = кроссворд?,1,kanvidu,клубок,enkade,3,2020-05-13_13h51.47.770,words,2020.1.2,Win32,60,left,2.023485,0,0,0,0,1,,,,,,,,,,,,,,,,,,,,,,,,,,,,,,,,,,,,,,,,
,,,,,ovarde,коридор,ovarde.wav,роза,коридор,удочка,black,green,black,ovarde = коридор?,1,feranu,наперсток,nukene,3,2020-05-13_13h51.47.770,words,2020.1.2,Win32,60,down,1.31737,0,1,1,1,1,,,,,,,,,,,,,,,,,,,,,,,,,,,,,,,,,,,,,,,,
,,,,,nukene,колокол,nukene.wav,микрофон,колокол,веер,black,green,black,nukene = копилка?,0,enkontu,гранат,beskadu,3,2020-05-13_13h51.47.770,words,2020.1.2,Win32,60,down,1.94485,0,2,2,2,1,,,,,,,,,,,,,,,,,,,,,,,,,,,,,,,,,,,,,,,,
,,,,,tivere,конверт,tivere.wav,мяч,компас,конверт,black,black,green,tivere = костыль?,0,erfate,самолет,renape,3,2020-05-13_13h51.47.770,words,2020.1.2,Win32,60,right,2.055045,0,3,3,3,1,,,,,,,,,,,,,,,,,,,,,,,,,,,,,,,,,,,,,,,,
,,,,,sevade,утюг,sevade.wav,утюг,стрела,аквариум,green,black,black,sevade = утюг?,1,tevone,копилка,favatu,3,2020-05-13_13h51.47.770,words,2020.1.2,Win32,60,left,1.57573,0,4,4,4,1,,,,,,,,,,,,,,,,,,,,,,,,,,,,,,,,,,,,,,,,
,,,,,enkade,точилка,enkade.wav,шашлык,свисток,точилка,black,black,green,enkade = точилка?,1,takuru,маяк,larantu,3,2020-05-13_13h51.47.770,words,2020.1.2,Win32,60,right,1.875795,0,5,5,5,1,,,,,,,,,,,,,,,,,,,,,,,,,,,,,,,,,,,,,,,,
,,,,,adiste,костюм,adiste.wav,маяк,гранат,костюм,black,black,green,adiste = хобот?,0,kaltane,стрела,sevade,3,2020-05-13_13h51.47.770,words,2020.1.2,Win32,60,right,1.119935,0,6,6,6,1,,,,,,,,,,,,,,,,,,,,,,,,,,,,,,,,,,,,,,,,
,,,,,madide,домино,madide.wav,стрела,колокол,домино,black,black,green,madide = флаг?,0,devinde,стол,senkide,3,2020-05-13_13h51.47.770,words,2020.1.2,Win32,60,right,1.2634,0,7,7,7,1,,,,,,,,,,,,,,,,,,,,,,,,,,,,,,,,,,,,,,,,
,,,,,devinde,стол,devinde.wav,компас,намордник,стол,black,black,green,devinde = костюм?,0,senkide,мяч,maviru,3,2020-05-13_13h51.47.770,words,2020.1.2,Win32,60,right,1.572295,0,8,8,8,1,,,,,,,,,,,,,,,,,,,,,,,,,,,,,,,,,,,,,,,,
,,,,,renape,кроссворд,renape.wav,кроссворд,гвоздь,мельница,green,black,black,renape = кроссворд?,1,kanvidu,клубок,enkade,3,2020-05-13_13h51.47.770,words,2020.1.2,Win32,60,,,,,,,,"[""r"",""e"",""v"",""a"",""n"",""d"",""e"",""return""]","[1.930309999966994,2.077555000083521,2.3465249999426305,2.6946950000710785,2.9007900001015514,3.0666249999776483,3.212074999930337,3.87895999988541]",3.87896,revande,0,0,0,0,1,,,,,,,,,,,,,,,,,,,,,,,,,,,,,,,
,,,,,ovarde,коридор,ovarde.wav,роза,коридор,удочка,black,green,black,ovarde = коридор?,1,feranu,наперсток,nukene,3,2020-05-13_13h51.47.770,words,2020.1.2,Win32,60,,,,,,,,"[""o"",""v"",""e"",""r"",""e"",""d"",""return""]","[1.3691300000064075,1.8782399999909103,2.202365000033751,2.4639550000429153,2.6444200000260025,2.794895000057295,4.135870000114664]",4.13587,overed,0,1,1,1,1,,,,,,,,,,,,,,,,,,,,,,,,,,,,,,,
,,,,,nukene,колокол,nukene.wav,микрофон,колокол,веер,black,green,black,nukene = копилка?,0,enkontu,гранат,beskadu,3,2020-05-13_13h51.47.770,words,2020.1.2,Win32,60,,,,,,,,"[""k"",""a"",""n"",""u"",""l"",""e"",""return""]","[3.2842550000641495,3.4328700001351535,3.5793400001712143,3.9017199999652803,4.1478200000710785,4.267025000182912,5.104359999997541]",5.10436,kanule,0,2,2,2,1,,,,,,,,,,,,,,,,,,,,,,,,,,,,,,,
,,,,,tivere,конверт,tivere.wav,мяч,компас,конверт,black,black,green,tivere = костыль?,0,erfate,самолет,renape,3,2020-05-13_13h51.47.770,words,2020.1.2,Win32,60,,,,,,,,"[""t"",""e"",""l"",""e"",""r"",""e"",""return""]","[1.5304250000044703,1.7436899999156594,1.9105100000742823,1.993819999974221,2.1606850000098348,2.294319999869913,3.0012399998959154]",3.00124,telere,0,3,3,3,1,,,,,,,,,,,,,,,,,,,,,,,,,,,,,,,
,,,,,sevade,утюг,sevade.wav,утюг,стрела,аквариум,green,black,black,sevade = утюг?,1,tevone,копилка,favatu,3,2020-05-13_13h51.47.770,words,2020.1.2,Win32,60,,,,,,,,"[""s"",""e"",""v"",""a"",""d"",""e"",""return""]","[1.9101900001987815,2.0943750001024455,2.476530000101775,2.7947350000031292,3.0476999999955297,3.1925150000024587,3.699910000199452]",3.69991,sevade,0,4,4,4,1,,,,,,,,,,,,,,,,,,,,,,,,,,,,,,,
,,,,,enkade,точилка,enkade.wav,шашлык,свисток,точилка,black,black,green,enkade = точилка?,1,takuru,маяк,larantu,3,2020-05-13_13h51.47.770,words,2020.1.2,Win32,60,,,,,,,,"[""e"",""n"",""v"",""e"",""d"",""e"",""return""]","[1.3682349999435246,2.1954999999143183,2.67854499979876,2.977710000006482,3.2323299997951835,3.3852699999697506,3.967255000025034]",3.967255,envede,0,5,5,5,1,,,,,,,,,,,,,,,,,,,,,,,,,,,,,,,
,,,,,adiste,костюм,adiste.wav,маяк,гранат,костюм,black,black,green,adiste = хобот?,0,kaltane,стрела,sevade,3,2020-05-13_13h51.47.770,words,2020.1.2,Win32,60,,,,,,,,"[""a"",""d"",""i"",""s"",""t"",""e"",""return""]","[1.4765550000593066,1.7273999999742955,2.108714999863878,2.4261999998707324,3.332315000006929,3.629969999892637,4.889414999866858]",4.889415,adiste,0,6,6,6,1,,,,,,,,,,,,,,,,,,,,,,,,,,,,,,,
,,,,,madide,домино,madide.wav,стрела,колокол,домино,black,black,green,madide = флаг?,0,devinde,стол,senkide,3,2020-05-13_13h51.47.770,words,2020.1.2,Win32,60,,,,,,,,"[""m"",""a"",""d"",""i"",""d"",""e"",""return""]","[1.842685000039637,2.0136949999723583,2.4183650000486523,2.5918600000441074,2.6979099998716265,2.8422900000587106,3.3946950000245124]",3.394695,madide,0,7,7,7,1,,,,,,,,,,,,,,,,,,,,,,,,,,,,,,,
,,,,,devinde,стол,devinde.wav,компас,намордник,стол,black,black,green,devinde = костюм?,0,senkide,мяч,maviru,3,2020-05-13_13h51.47.770,words,2020.1.2,Win32,60,,,,,,,,"[""d"",""e"",""v"",""e"",""n"",""e"",""return""]","[1.3026700001209974,1.4783850000239909,1.7507700000423938,1.963884999975562,2.2359150000847876,2.5142200000118464,2.9841250001918525]",2.984125,devene,0,8,8,8,1,,,,,,,,,,,,,,,,,,,,,,,,,,,,,,,
,,,,,,,,,,,,,,,,,,,3,2020-05-13_13h51.47.770,words,2020.1.2,Win32,60,,,,,,,,,,,,,,,,,0,1,1,1,1,11:20,,,,,,,,,,,,,,,,,,,,,,,,,
0,0,0,0,1,dinrase,гвоздь,dinrase.wav,гвоздь,самолет,клубок,green,black,black,dinrase = гвоздь?,1,akastu,ведро,aderu,3,2020-05-13_13h51.47.770,words,2020.1.2,Win32,60,,,,,,,,,,,,,,,,,,,,,,,,,,,,,,,,,,,,,,,,,,,,,,,
0,1,1,1,1,enkontu,гранат,enkontu.wav,шашлык,удочка,гранат,black,black,green,enkontu = гранат?,1,beskadu,колбаса,enkalu,3,2020-05-13_13h51.47.770,words,2020.1.2,Win32,60,,,,,,,,,,,,,,,,,,,,,,,,,,,,,,,,,,,,,,,,,,,,,,,
0,2,2,2,1,feranu,наперсток,feranu.wav,маяк,коридор,наперсток,black,black,green,feranu = наперсток?,1,nukene,колокол,enkontu,3,2020-05-13_13h51.47.770,words,2020.1.2,Win32,60,,,,,,,,,,,,,,,,,,,,,,,,,,,,,,,,,,,,,,,,,,,,,,,
0,3,3,3,1,lornitu,микрофон,lornitu.wav,микрофон,пальма,стрела,green,black,black,lornitu = терка?,0,madide,домино,devinde,3,2020-05-13_13h51.47.770,words,2020.1.2,Win32,60,,,,,,,,,,,,,,,,,,,,,,,,,,,,,,,,,,,,,,,,,,,,,,,
0,4,4,4,1,savere,шашлык,savere.wav,шашлык,копилка,стрела,green,black,black,savere = шашлык?,1,vembare,удочка,tanibu,3,2020-05-13_13h51.47.770,words,2020.1.2,Win32,60,,,,,,,,,,,,,,,,,,,,,,,,,,,,,,,,,,,,,,,,,,,,,,,
0,5,5,5,1,pikide,намордник,pikide.wav,намордник,мельница,домино,green,black,black,pikide = микрофон?,0,mugalu,качели,dinrase,3,2020-05-13_13h51.47.770,words,2020.1.2,Win32,60,,,,,,,,,,,,,,,,,,,,,,,,,,,,,,,,,,,,,,,,,,,,,,,
0,6,6,6,1,mugalu,качели,mugalu.wav,пистолет,самолет,качели,black,black,green,mugalu = качели?,1,dinrase,гвоздь,akastu,3,2020-05-13_13h51.47.770,words,2020.1.2,Win32,60,,,,,,,,,,,,,,,,,,,,,,,,,,,,,,,,,,,,,,,,,,,,,,,
0,7,7,7,1,kanvidu,клубок,kanvidu.wav,компас,клубок,ведро,black,green,black,kanvidu = аквариум?,0,enkade,точилка,takuru,3,2020-05-13_13h51.47.770,words,2020.1.2,Win32,60,,,,,,,,,,,,,,,,,,,,,,,,,,,,,,,,,,,,,,,,,,,,,,,
,,,,,dinrase,гвоздь,dinrase.wav,гвоздь,самолет,клубок,green,black,black,dinrase = гвоздь?,1,akastu,ведро,aderu,3,2020-05-13_13h51.47.770,words,2020.1.2,Win32,60,right,1.91798,0,0,0,0,1,,,,,,,,,,,,,,,,,,,,,,,,,,,,,,,,,,,,,,,,
,,,,,enkontu,гранат,enkontu.wav,шашлык,удочка,гранат,black,black,green,enkontu = гранат?,1,beskadu,колбаса,enkalu,3,2020-05-13_13h51.47.770,words,2020.1.2,Win32,60,right,1.937655,0,1,1,1,1,,,,,,,,,,,,,,,,,,,,,,,,,,,,,,,,,,,,,,,,
,,,,,feranu,наперсток,feranu.wav,маяк,коридор,наперсток,black,black,green,feranu = наперсток?,1,nukene,колокол,enkontu,3,2020-05-13_13h51.47.770,words,2020.1.2,Win32,60,right,1.85261,0,2,2,2,1,,,,,,,,,,,,,,,,,,,,,,,,,,,,,,,,,,,,,,,,
,,,,,lornitu,микрофон,lornitu.wav,микрофон,пальма,стрела,green,black,black,lornitu = терка?,0,madide,домино,devinde,3,2020-05-13_13h51.47.770,words,2020.1.2,Win32,60,left,1.541,0,3,3,3,1,,,,,,,,,,,,,,,,,,,,,,,,,,,,,,,,,,,,,,,,
,,,,,savere,шашлык,savere.wav,шашлык,копилка,стрела,green,black,black,savere = шашлык?,1,vembare,удочка,tanibu,3,2020-05-13_13h51.47.770,words,2020.1.2,Win32,60,left,2.07274,0,4,4,4,1,,,,,,,,,,,,,,,,,,,,,,,,,,,,,,,,,,,,,,,,
,,,,,pikide,намордник,pikide.wav,намордник,мельница,домино,green,black,black,pikide = микрофон?,0,mugalu,качели,dinrase,3,2020-05-13_13h51.47.770,words,2020.1.2,Win32,60,left,1.95468,0,5,5,5,1,,,,,,,,,,,,,,,,,,,,,,,,,,,,,,,,,,,,,,,,
,,,,,mugalu,качели,mugalu.wav,пистолет,самолет,качели,black,black,green,mugalu = качели?,1,dinrase,гвоздь,akastu,3,2020-05-13_13h51.47.770,words,2020.1.2,Win32,60,right,1.60652,0,6,6,6,1,,,,,,,,,,,,,,,,,,,,,,,,,,,,,,,,,,,,,,,,
,,,,,kanvidu,клубок,kanvidu.wav,компас,клубок,ведро,black,green,black,kanvidu = аквариум?,0,enkade,точилка,takuru,3,2020-05-13_13h51.47.770,words,2020.1.2,Win32,60,down,1.74646,0,7,7,7,1,,,,,,,,,,,,,,,,,,,,,,,,,,,,,,,,,,,,,,,,
,,,,,vembare,удочка,vembare.wav,удочка,утюг,мяч,green,black,black,vembare = удочка?,1,tanibu,хобот,trokele,3,2020-05-13_13h51.47.770,words,2020.1.2,Win32,60,left,1.447955,0,8,8,8,1,,,,,,,,,,,,,,,,,,,,,,,,,,,,,,,,,,,,,,,,
,,,,,dinrase,гвоздь,dinrase.wav,гвоздь,самолет,клубок,green,black,black,dinrase = гвоздь?,1,akastu,ведро,aderu,3,2020-05-13_13h51.47.770,words,2020.1.2,Win32,60,,,,,,,,"[""e"",""n"",""r"",""u"",""s"",""e"",""backspace"",""backspace"",""backspace"",""a""]","[3.382084999931976,3.7211349999997765,4.631349999923259,5.535015000030398,5.701164999976754,5.8951250000391155,6.136449999874458,6.283490000059828,6.412534999893978,6.7108899999875575]",7,,0,0,0,0,1,,,,,,,,,,,,,,,,,,,,,,,,,,,,,,,
,,,,,enkontu,гранат,enkontu.wav,шашлык,удочка,гранат,black,black,green,enkontu = гранат?,1,beskadu,колбаса,enkalu,3,2020-05-13_13h51.47.770,words,2020.1.2,Win32,60,,,,,,,,"[""e"",""n"",""b"",""backspace"",""c"",""e"",""l"",""o"",""return""]","[1.4395399999339134,1.9145500001031905,3.3305800000671297,3.82433500001207,4.01435499987565,4.173190000001341,4.487045000074431,4.665349999908358,5.284704999998212]",5.284705,encelo,0,1,1,1,1,,,,,,,,,,,,,,,,,,,,,,,,,,,,,,,
,,,,,feranu,наперсток,feranu.wav,маяк,коридор,наперсток,black,black,green,feranu = наперсток?,1,nukene,колокол,enkontu,3,2020-05-13_13h51.47.770,words,2020.1.2,Win32,60,,,,,,,,"[""f"",""a"",""r"",""i"",""n"",""e"",""return""]","[2.1120000001974404,2.3787850001826882,2.652605000184849,2.8449950001668185,3.0710650000255555,3.1991900000721216,3.6367400002200156]",3.63674,farine,0,2,2,2,1,,,,,,,,,,,,,,,,,,,,,,,,,,,,,,,
,,,,,lornitu,микрофон,lornitu.wav,микрофон,пальма,стрела,green,black,black,lornitu = терка?,0,madide,домино,devinde,3,2020-05-13_13h51.47.770,words,2020.1.2,Win32,60,,,,,,,,"[""p"",""backspace"",""l"",""o"",""t"",""r"",""backspace"",""i"",""n"",""m"",""e"",""return""]","[1.716224999865517,2.5264549998100847,2.909504999872297,3.109754999866709,3.4768099999055266,4.609159999992698,4.725954999914393,5.348269999958575,5.559489999897778,5.842784999869764,5.862074999837205,6.523699999786913]",6.5237,lotinme,0,3,3,3,1,,,,,,,,,,,,,,,,,,,,,,,,,,,,,,,
,,,,,savere,шашлык,savere.wav,шашлык,копилка,стрела,green,black,black,savere = шашлык?,1,vembare,удочка,tanibu,3,2020-05-13_13h51.47.770,words,2020.1.2,Win32,60,,,,,,,,"[""s"",""e"",""v"",""e"",""r"",""e"",""return""]","[1.1948549998924136,1.3775750000495464,1.7105449999216944,2.666484999936074,2.8979599999729544,3.335315000033006,3.948134999955073]",3.948135,severe,0,4,4,4,1,,,,,,,,,,,,,,,,,,,,,,,,,,,,,,,
,,,,,pikide,намордник,pikide.wav,намордник,мельница,домино,green,black,black,pikide = микрофон?,0,mugalu,качели,dinrase,3,2020-05-13_13h51.47.770,words,2020.1.2,Win32,60,,,,,,,,"[""p"",""i"",""k"",""i"",""d"",""e"",""return""]","[1.527605000184849,1.909270000178367,2.1091150001157075,2.2612150001805276,2.4651200000662357,2.6321250000037253,3.116860000183806]",3.11686,pikide,0,5,5,5,1,,,,,,,,,,,,,,,,,,,,,,,,,,,,,,,
,,,,,mugalu,качели,mugalu.wav,пистолет,самолет,качели,black,black,green,mugalu = качели?,1,dinrase,гвоздь,akastu,3,2020-05-13_13h51.47.770,words,2020.1.2,Win32,60,,,,,,,,"[""m"",""u"",""d"",""backspace"",""g"",""a"",""l"",""u"",""return""]","[1.5951400001067668,2.244545000139624,2.529145000036806,3.128135000122711,3.3779100000392646,3.703459999989718,4.037110000150278,4.229350000154227,4.650375000201166]",4.650375,mugalu,0,6,6,6,1,,,,,,,,,,,,,,,,,,,,,,,,,,,,,,,
,,,,,kanvidu,клубок,kanvidu.wav,компас,клубок,ведро,black,green,black,kanvidu = аквариум?,0,enkade,точилка,takuru,3,2020-05-13_13h51.47.770,words,2020.1.2,Win32,60,,,,,,,,"[""k"",""i"",""n"",""v"",""a"",""r"",""e"",""return""]","[1.7112549999728799,1.944205000065267,2.59355999995023,3.1339549999684095,3.327915000030771,3.6939199999906123,3.9681850001215935,4.396480000112206]",4.39648,kinvare,0,7,7,7,1,,,,,,,,,,,,,,,,,,,,,,,,,,,,,,,
,,,,,vembare,удочка,vembare.wav,удочка,утюг,мяч,green,black,black,vembare = удочка?,1,tanibu,хобот,trokele,3,2020-05-13_13h51.47.770,words,2020.1.2,Win32,60,,,,,,,,"[""v"",""e"",""m"",""b"",""a"",""r"",""e"",""return""]","[1.7697599998209625,2.015529999975115,2.397510000038892,3.4262099999468774,3.5678749999497086,3.809415000025183,3.9332649998832494,4.273989999899641]",4.27399,vembare,0,8,8,8,1,,,,,,,,,,,,,,,,,,,,,,,,,,,,,,,
,,,,,,,,,,,,,,,,,,,3,2020-05-13_13h51.47.770,words,2020.1.2,Win32,60,,,,,,,,,,,,,,,,,0,2,2,2,1,21:30,,,,,,,,,,,,,,,,,,,,,,,,,
0,0,0,0,1,tevone,копилка,tevone.wav,шашлык,копилка,веер,black,green,black,tevone = клубок?,0,favatu,одуванчик,ovarde,3,2020-05-13_13h51.47.770,words,2020.1.2,Win32,60,,,,,,,,,,,,,,,,,,,,,,,,,,,,,,,,,,,,,,,,,,,,,,,
0,1,1,1,1,enveku,шприц,enveku.wav,одуванчик,флаг,шприц,black,black,green,enveku = шприц?,1,venkere,аквариум,abadu,3,2020-05-13_13h51.47.770,words,2020.1.2,Win32,60,,,,,,,,,,,,,,,,,,,,,,,,,,,,,,,,,,,,,,,,,,,,,,,
0,2,2,2,1,larantu,веер,larantu.wav,веер,костюм,шприц,green,black,black,larantu = намордник?,0,adiste,костюм,kaltane,3,2020-05-13_13h51.47.770,words,2020.1.2,Win32,60,,,,,,,,,,,,,,,,,,,,,,,,,,,,,,,,,,,,,,,,,,,,,,,
0,3,3,3,1,trokele,терка,trokele.wav,терка,домино,качели,green,black,black,trokele = ремень?,0,sulvidu,компас,enveku,3,2020-05-13_13h51.47.770,words,2020.1.2,Win32,60,,,,,,,,,,,,,,,,,,,,,,,,,,,,,,,,,,,,,,,,,,,,,,,
0,4,4,4,1,favatu,одуванчик,favatu.wav,одуванчик,компас,гвоздь,green,black,black,favatu = одуванчик?,1,ovarde,коридор,feranu,3,2020-05-13_13h51.47.770,words,2020.1.2,Win32,60,,,,,,,,,,,,,,,,,,,,,,,,,,,,,,,,,,,,,,,,,,,,,,,
0,5,5,5,1,erfate,самолет,erfate.wav,самолет,наперсток,конверт,green,black,black,erfate = самолет?,1,renape,кроссворд,kanvidu,3,2020-05-13_13h51.47.770,words,2020.1.2,Win32,60,,,,,,,,,,,,,,,,,,,,,,,,,,,,,,,,,,,,,,,,,,,,,,,
0,6,6,6,1,sulvidu,компас,sulvidu.wav,клубок,костыль,компас,black,black,green,sulvidu = компас?,1,enveku,шприц,venkere,3,2020-05-13_13h51.47.770,words,2020.1.2,Win32,60,,,,,,,,,,,,,,,,,,,,,,,,,,,,,,,,,,,,,,,,,,,,,,,
0,7,7,7,1,tanibu,хобот,tanibu.wav,точилка,роза,хобот,black,black,green,tanibu = конверт?,0,trokele,терка,sulvidu,3,2020-05-13_13h51.47.770,words,2020.1.2,Win32,60,,,,,,,,,,,,,,,,,,,,,,,,,,,,,,,,,,,,,,,,,,,,,,,
,,,,,tevone,копилка,tevone.wav,шашлык,копилка,веер,black,green,black,tevone = клубок?,0,favatu,одуванчик,ovarde,3,2020-05-13_13h51.47.770,words,2020.1.2,Win32,60,down,1.669025,0,0,0,0,1,,,,,,,,,,,,,,,,,,,,,,,,,,,,,,,,,,,,,,,,
,,,,,enveku,шприц,enveku.wav,одуванчик,флаг,шприц,black,black,green,enveku = шприц?,1,venkere,аквариум,abadu,3,2020-05-13_13h51.47.770,words,2020.1.2,Win32,60,right,1.790285,0,1,1,1,1,,,,,,,,,,,,,,,,,,,,,,,,,,,,,,,,,,,,,,,,
,,,,,larantu,веер,larantu.wav,веер,костюм,шприц,green,black,black,larantu = намордник?,0,adiste,костюм,kaltane,3,2020-05-13_13h51.47.770,words,2020.1.2,Win32,60,down,2.13024,0,2,2,2,1,,,,,,,,,,,,,,,,,,,,,,,,,,,,,,,,,,,,,,,,
,,,,,trokele,терка,trokele.wav,терка,домино,качели,green,black,black,trokele = ремень?,0,sulvidu,компас,enveku,3,2020-05-13_13h51.47.770,words,2020.1.2,Win32,60,left,1.895605,0,3,3,3,1,,,,,,,,,,,,,,,,,,,,,,,,,,,,,,,,,,,,,,,,
,,,,,favatu,одуванчик,favatu.wav,одуванчик,компас,гвоздь,green,black,black,favatu = одуванчик?,1,ovarde,коридор,feranu,3,2020-05-13_13h51.47.770,words,2020.1.2,Win32,60,left,1.788185,0,4,4,4,1,,,,,,,,,,,,,,,,,,,,,,,,,,,,,,,,,,,,,,,,
,,,,,erfate,самолет,erfate.wav,самолет,наперсток,конверт,green,black,black,erfate = самолет?,1,renape,кроссворд,kanvidu,3,2020-05-13_13h51.47.770,words,2020.1.2,Win32,60,left,2.205365,0,5,5,5,1,,,,,,,,,,,,,,,,,,,,,,,,,,,,,,,,,,,,,,,,
,,,,,sulvidu,компас,sulvidu.wav,клубок,костыль,компас,black,black,green,sulvidu = компас?,1,enveku,шприц,venkere,3,2020-05-13_13h51.47.770,words,2020.1.2,Win32,60,right,2.320155,0,6,6,6,1,,,,,,,,,,,,,,,,,,,,,,,,,,,,,,,,,,,,,,,,
,,,,,tanibu,хобот,tanibu.wav,точилка,роза,хобот,black,black,green,tanibu = конверт?,0,trokele,терка,sulvidu,3,2020-05-13_13h51.47.770,words,2020.1.2,Win32,60,right,1.55904,0,7,7,7,1,,,,,,,,,,,,,,,,,,,,,,,,,,,,,,,,,,,,,,,,
,,,,,abadu,костыль,abadu.wav,кроссворд,пальма,костыль,black,black,green,abadu = домино?,0,invaltu,флаг,tivere,3,2020-05-13_13h51.47.770,words,2020.1.2,Win32,60,right,1.955275,0,8,8,8,1,,,,,,,,,,,,,,,,,,,,,,,,,,,,,,,,,,,,,,,,
,,,,,tevone,копилка,tevone.wav,шашлык,копилка,веер,black,green,black,tevone = клубок?,0,favatu,одуванчик,ovarde,3,2020-05-13_13h51.47.770,words,2020.1.2,Win32,60,,,,,,,,"[""e"",""n"",""x"",""backspace"",""v"",""e"",""l"",""o"",""return""]","[1.754549999954179,2.011075000045821,2.6774949999526143,3.4939399999566376,3.6602050000801682,3.8188849999569356,4.211565000005066,4.381589999888092,4.940935000078753]",4.940935,envelo,0,0,0,0,1,,,,,,,,,,,,,,,,,,,,,,,,,,,,,,,
,,,,,enveku,шприц,enveku.wav,одуванчик,флаг,шприц,black,black,green,enveku = шприц?,1,venkere,аквариум,abadu,3,2020-05-13_13h51.47.770,words,2020.1.2,Win32,60,,,,,,,,"[""e"",""n"",""v"",""e"",""k"",""i"",""backspace"",""o"",""return""]","[1.34546500002034,2.0913350000046194,2.3996349999215454,2.6450700000859797,3.311204999918118,3.4750200000125915,4.45827000006102,4.741450000088662,5.265755000058562]",5.265755,enveko,0,1,1,1,1,,,,,,,,,,,,,,,,,,,,,,,,,,,,,,,
,,,,,larantu,веер,larantu.wav,веер,костюм,шприц,green,black,black,larantu = намордник?,0,adiste,костюм,kaltane,3,2020-05-13_13h51.47.770,words,2020.1.2,Win32,60,,,,,,,,"[""l"",""a"",""r"",""u"",""t"",""e"",""return""]","[1.3353550001047552,2.133140000049025,2.4769850000739098,2.6454400001093745,3.2275050000753254,3.993595000123605,5.543724999995902]",5.543725,larute,0,2,2,2,1,,,,,,,,,,,,,,,,,,,,,,,,,,,,,,,
,,,,,trokele,терка,trokele.wav,терка,домино,качели,green,black,black,trokele = ремень?,0,sulvidu,компас,enveku,3,2020-05-13_13h51.47.770,words,2020.1.2,Win32,60,,,,,,,,"[""t"",""o"",""r"",""a"",""k"",""e"",""return""]","[3.212580000050366,3.781840000068769,4.160810000030324,4.435664999997243,4.610055000055581,4.748954999959096,5.20022500003688]",5.200225,torake,0,3,3,3,1,,,,,,,,,,,,,,,,,,,,,,,,,,,,,,,
,,,,,favatu,одуванчик,favatu.wav,одуванчик,компас,гвоздь,green,black,black,favatu = одуванчик?,1,ovarde,коридор,feranu,3,2020-05-13_13h51.47.770,words,2020.1.2,Win32,60,,,,,,,,"[""f"",""l"",""a"",""v"",""a"",""t"",""u"",""return""]","[1.5508099999278784,1.7955099998507649,1.9616499999538064,2.378359999973327,2.678139999974519,3.035954999970272,3.4127549999393523,3.8987199999392033]",3.89872,flavatu,0,4,4,4,1,,,,,,,,,,,,,,,,,,,,,,,,,,,,,,,
,,,,,erfate,самолет,erfate.wav,самолет,наперсток,конверт,green,black,black,erfate = самолет?,1,renape,кроссворд,kanvidu,3,2020-05-13_13h51.47.770,words,2020.1.2,Win32,60,,,,,,,,"[""e"",""r"",""v"",""a"",""t"",""e"",""return""]","[1.1787550000008196,1.3631949999835342,1.8334000001195818,2.211009999969974,2.677519999910146,2.9202099998947233,3.7757800000254065]",3.77578,ervate,0,5,5,5,1,,,,,,,,,,,,,,,,,,,,,,,,,,,,,,,
,,,,,sulvidu,компас,sulvidu.wav,клубок,костыль,компас,black,black,green,sulvidu = компас?,1,enveku,шприц,venkere,3,2020-05-13_13h51.47.770,words,2020.1.2,Win32,60,,,,,,,,"[""s"",""i"",""v"",""i"",""d"",""e"",""backspace"",""u"",""return""]","[1.7947199998889118,2.2274999998044223,2.5493149999529123,2.68730999995023,2.843929999973625,2.9809049998875707,3.7621799998451024,4.093664999818429,4.507259999867529]",4.50726,sividu,0,6,6,6,1,,,,,,,,,,,,,,,,,,,,,,,,,,,,,,,
,,,,,tanibu,хобот,tanibu.wav,точилка,роза,хобот,black,black,green,tanibu = конверт?,0,trokele,терка,sulvidu,3,2020-05-13_13h51.47.770,words,2020.1.2,Win32,60,,,,,,,,"[""t"",""o"",""k"",""a"",""r"",""e"",""return""]","[2.0768899999093264,2.4504450000822544,3.1098249999340624,3.9095050001051277,4.195659999968484,4.32875999994576,4.729104999918491]",4.729105,tokare,0,7,7,7,1,,,,,,,,,,,,,,,,,,,,,,,,,,,,,,,
,,,,,abadu,костыль,abadu.wav,кроссворд,пальма,костыль,black,black,green,abadu = домино?,0,invaltu,флаг,tivere,3,2020-05-13_13h51.47.770,words,2020.1.2,Win32,60,,,,,,,,"[""a"",""b"",""a"",""d"",""u"",""return""]","[1.3447900000028312,2.0150099999736995,2.142045000102371,2.3654899999964982,2.8087750000413507,3.1627400000579655]",3.16274,abadu,0,8,8,8,1,,,,,,,,,,,,,,,,,,,,,,,,,,,,,,,
,,,,,invaltu,флаг,invaltu.wav,ремень,флаг,стрела,black,green,black,invaltu = колокол?,0,tivere,конверт,erfate,3,2020-05-13_13h51.47.770,words,2020.1.2,Win32,60,,,,,,,,,,,,,,,,,,,,,,,return,127.788055,right,2.424135,0,0,0,0,1,,,,,,,,,,,,,,,,
,,,,,panabu,свисток,panabu.wav,свисток,пальма,стол,green,black,black,panabu = свисток?,1,savere,шашлык,vembare,3,2020-05-13_13h51.47.770,words,2020.1.2,Win32,60,,,,,,,,,,,,,,,,,,,,,,,,,right,2.08328,0,1,1,1,1,,,,,,,,,,,,,,,,
,,,,,kaltane,стрела,kaltane.wav,костюм,стрела,колбаса,black,green,black,kaltane = стрела?,1,sevade,утюг,tevone,3,2020-05-13_13h51.47.770,words,2020.1.2,Win32,60,,,,,,,,,,,,,,,,,,,,,,,,,left,1.449,0,2,2,2,1,,,,,,,,,,,,,,,,
,,,,,aderu,пистолет,aderu.wav,пистолет,одуванчик,микрофон,green,black,black,aderu = пистолет?,1,panabu,свисток,savere,3,2020-05-13_13h51.47.770,words,2020.1.2,Win32,60,,,,,,,,,,,,,,,,,,,,,,,,,right,1.08599,0,3,3,3,1,,,,,,,,,,,,,,,,
,,,,,enkalu,пальма,enkalu.wav,шприц,пальма,свисток,black,green,black,enkalu = пальма?,1,pakanu,мельница,lornitu,3,2020-05-13_13h51.47.770,words,2020.1.2,Win32,60,,,,,,,,,,,,,,,,,,,,,,,,,left,1.48021,0,4,4,4,1,,,,,,,,,,,,,,,,
,,,,,senkide,мяч,senkide.wav,мяч,гранат,терка,green,black,black,senkide = стол?,0,maviru,ремень,pentave,3,2020-05-13_13h51.47.770,words,2020.1.2,Win32,60,,,,,,,,,,,,,,,,,,,,,,,,,right,1.545935,0,5,5,5,1,,,,,,,,,,,,,,,,
,,,,,akastu,ведро,akastu.wav,костыль,костюм,ведро,black,black,green,akastu = ведро?,1,aderu,пистолет,panabu,3,2020-05-13_13h51.47.770,words,2020.1.2,Win32,60,,,,,,,,,,,,,,,,,,,,,,,,,left,1.3632,0,6,6,6,1,,,,,,,,,,,,,,,,
,,,,,takuru,маяк,takuru.wav,наперсток,маяк,клубок,black,green,black,takuru = маяк?,1,larantu,веер,adiste,3,2020-05-13_13h51.47.770,words,2020.1.2,Win32,60,,,,,,,,,,,,,,,,,,,,,,,,,left,1.7155,0,7,7,7,1,,,,,,,,,,,,,,,,
,,,,,pakanu,мельница,pakanu.wav,мельница,аквариум,ремень,green,black,black,pakanu = мельница?,1,lornitu,микрофон,madide,3,2020-05-13_13h51.47.770,words,2020.1.2,Win32,60,,,,,,,,,,,,,,,,,,,,,,,,,left,1.945575,0,8,8,8,1,,,,,,,,,,,,,,,,
,,,,,beskadu,колбаса,beskadu.wav,качели,хобот,колбаса,black,black,green,beskadu = колбаса?,1,enkalu,пальма,pakanu,3,2020-05-13_13h51.47.770,words,2020.1.2,Win32,60,,,,,,,,,,,,,,,,,,,,,,,,,left,1.438395,0,9,9,9,1,,,,,,,,,,,,,,,,
,,,,,venkere,аквариум,venkere.wav,аквариум,свисток,конверт,green,black,black,venkere = мяч?,0,abadu,костыль,invaltu,3,2020-05-13_13h51.47.770,words,2020.1.2,Win32,60,,,,,,,,,,,,,,,,,,,,,,,,,right,2.18278,0,10,10,10,1,,,,,,,,,,,,,,,,
,,,,,renape,кроссворд,renape.wav,кроссворд,гвоздь,мельница,green,black,black,renape = кроссворд?,1,kanvidu,клубок,enkade,3,2020-05-13_13h51.47.770,words,2020.1.2,Win32,60,,,,,,,,,,,,,,,,,,,,,,,,,left,1.696255,0,11,11,11,1,,,,,,,,,,,,,,,,
,,,,,ovarde,коридор,ovarde.wav,роза,коридор,удочка,black,green,black,ovarde = коридор?,1,feranu,наперсток,nukene,3,2020-05-13_13h51.47.770,words,2020.1.2,Win32,60,,,,,,,,,,,,,,,,,,,,,,,,,left,1.03921,0,12,12,12,1,,,,,,,,,,,,,,,,
,,,,,nukene,колокол,nukene.wav,микрофон,колокол,веер,black,green,black,nukene = копилка?,0,enkontu,гранат,beskadu,3,2020-05-13_13h51.47.770,words,2020.1.2,Win32,60,,,,,,,,,,,,,,,,,,,,,,,,,right,1.84613,0,13,13,13,1,,,,,,,,,,,,,,,,
,,,,,tivere,конверт,tivere.wav,мяч,компас,конверт,black,black,green,tivere = костыль?,0,erfate,самолет,renape,3,2020-05-13_13h51.47.770,words,2020.1.2,Win32,60,,,,,,,,,,,,,,,,,,,,,,,,,right,1.190095,0,14,14,14,1,,,,,,,,,,,,,,,,
,,,,,sevade,утюг,sevade.wav,утюг,стрела,аквариум,green,black,black,sevade = утюг?,1,tevone,копилка,favatu,3,2020-05-13_13h51.47.770,words,2020.1.2,Win32,60,,,,,,,,,,,,,,,,,,,,,,,,,left,1.26411,0,15,15,15,1,,,,,,,,,,,,,,,,
,,,,,enkade,точилка,enkade.wav,шашлык,свисток,точилка,black,black,green,enkade = точилка?,1,takuru,маяк,larantu,3,2020-05-13_13h51.47.770,words,2020.1.2,Win32,60,,,,,,,,,,,,,,,,,,,,,,,,,left,1.262565,0,16,16,16,1,,,,,,,,,,,,,,,,
,,,,,adiste,костюм,adiste.wav,маяк,гранат,костюм,black,black,green,adiste = хобот?,0,kaltane,стрела,sevade,3,2020-05-13_13h51.47.770,words,2020.1.2,Win32,60,,,,,,,,,,,,,,,,,,,,,,,,,right,1.178515,0,17,17,17,1,,,,,,,,,,,,,,,,
,,,,,madide,домино,madide.wav,стрела,колокол,домино,black,black,green,madide = флаг?,0,devinde,стол,senkide,3,2020-05-13_13h51.47.770,words,2020.1.2,Win32,60,,,,,,,,,,,,,,,,,,,,,,,,,right,1.046805,0,18,18,18,1,,,,,,,,,,,,,,,,
,,,,,devinde,стол,devinde.wav,компас,намордник,стол,black,black,green,devinde = костюм?,0,senkide,мяч,maviru,3,2020-05-13_13h51.47.770,words,2020.1.2,Win32,60,,,,,,,,,,,,,,,,,,,,,,,,,right,1.734635,0,19,19,19,1,,,,,,,,,,,,,,,,
,,,,,pentave,роза,pentave.wav,мельница,роза,коридор,black,green,black,pentave = роза?,1,pikide,намордник,mugalu,3,2020-05-13_13h51.47.770,words,2020.1.2,Win32,60,,,,,,,,,,,,,,,,,,,,,,,,,right,2.628875,0,20,20,20,1,,,,,,,,,,,,,,,,
,,,,,dinrase,гвоздь,dinrase.wav,гвоздь,самолет,клубок,green,black,black,dinrase = гвоздь?,1,akastu,ведро,aderu,3,2020-05-13_13h51.47.770,words,2020.1.2,Win32,60,,,,,,,,,,,,,,,,,,,,,,,,,left,1.483575,0,21,21,21,1,,,,,,,,,,,,,,,,
,,,,,enkontu,гранат,enkontu.wav,шашлык,удочка,гранат,black,black,green,enkontu = гранат?,1,beskadu,колбаса,enkalu,3,2020-05-13_13h51.47.770,words,2020.1.2,Win32,60,,,,,,,,,,,,,,,,,,,,,,,,,left,1.666235,0,22,22,22,1,,,,,,,,,,,,,,,,
,,,,,feranu,наперсток,feranu.wav,маяк,коридор,наперсток,black,black,green,feranu = наперсток?,1,nukene,колокол,enkontu,3,2020-05-13_13h51.47.770,words,2020.1.2,Win32,60,,,,,,,,,,,,,,,,,,,,,,,,,left,1.57875,0,23,23,23,1,,,,,,,,,,,,,,,,
,,,,,lornitu,микрофон,lornitu.wav,микрофон,пальма,стрела,green,black,black,lornitu = терка?,0,madide,домино,devinde,3,2020-05-13_13h51.47.770,words,2020.1.2,Win32,60,,,,,,,,,,,,,,,,,,,,,,,,,right,1.757335,0,24,24,24,1,,,,,,,,,,,,,,,,
,,,,,savere,шашлык,savere.wav,шашлык,копилка,стрела,green,black,black,savere = шашлык?,1,vembare,удочка,tanibu,3,2020-05-13_13h51.47.770,words,2020.1.2,Win32,60,,,,,,,,,,,,,,,,,,,,,,,,,left,1.096645,0,25,25,25,1,,,,,,,,,,,,,,,,
,,,,,pikide,намордник,pikide.wav,намордник,мельница,домино,green,black,black,pikide = микрофон?,0,mugalu,качели,dinrase,3,2020-05-13_13h51.47.770,words,2020.1.2,Win32,60,,,,,,,,,,,,,,,,,,,,,,,,,left,1.25223,0,26,26,26,1,,,,,,,,,,,,,,,,
,,,,,mugalu,качели,mugalu.wav,пистолет,самолет,качели,black,black,green,mugalu = качели?,1,dinrase,гвоздь,akastu,3,2020-05-13_13h51.47.770,words,2020.1.2,Win32,60,,,,,,,,,,,,,,,,,,,,,,,,,left,1.197895,0,27,27,27,1,,,,,,,,,,,,,,,,
,,,,,kanvidu,клубок,kanvidu.wav,компас,клубок,ведро,black,green,black,kanvidu = аквариум?,0,enkade,точилка,takuru,3,2020-05-13_13h51.47.770,words,2020.1.2,Win32,60,,,,,,,,,,,,,,,,,,,,,,,,,right,1.62975,0,28,28,28,1,,,,,,,,,,,,,,,,
,,,,,vembare,удочка,vembare.wav,удочка,утюг,мяч,green,black,black,vembare = удочка?,1,tanibu,хобот,trokele,3,2020-05-13_13h51.47.770,words,2020.1.2,Win32,60,,,,,,,,,,,,,,,,,,,,,,,,,left,1.611875,0,29,29,29,1,,,,,,,,,,,,,,,,
,,,,,maviru,ремень,maviru.wav,шашлык,маяк,ремень,black,black,green,maviru = веер?,0,pentave,роза,pikide,3,2020-05-13_13h51.47.770,words,2020.1.2,Win32,60,,,,,,,,,,,,,,,,,,,,,,,,,right,1.80538,0,30,30,30,1,,,,,,,,,,,,,,,,
,,,,,tevone,копилка,tevone.wav,шашлык,копилка,веер,black,green,black,tevone = клубок?,0,favatu,одуванчик,ovarde,3,2020-05-13_13h51.47.770,words,2020.1.2,Win32,60,,,,,,,,,,,,,,,,,,,,,,,,,right,1.912255,0,31,31,31,1,,,,,,,,,,,,,,,,
,,,,,enveku,шприц,enveku.wav,одуванчик,флаг,шприц,black,black,green,enveku = шприц?,1,venkere,аквариум,abadu,3,2020-05-13_13h51.47.770,words,2020.1.2,Win32,60,,,,,,,,,,,,,,,,,,,,,,,,,left,1.685135,0,32,32,32,1,,,,,,,,,,,,,,,,
,,,,,larantu,веер,larantu.wav,веер,костюм,шприц,green,black,black,larantu = намордник?,0,adiste,костюм,kaltane,3,2020-05-13_13h51.47.770,words,2020.1.2,Win32,60,,,,,,,,,,,,,,,,,,,,,,,,,right,1.871215,0,33,33,33,1,,,,,,,,,,,,,,,,
,,,,,trokele,терка,trokele.wav,терка,домино,качели,green,black,black,trokele = ремень?,0,sulvidu,компас,enveku,3,2020-05-13_13h51.47.770,words,2020.1.2,Win32,60,,,,,,,,,,,,,,,,,,,,,,,,,right,1.97806,0,34,34,34,1,,,,,,,,,,,,,,,,
,,,,,favatu,одуванчик,favatu.wav,одуванчик,компас,гвоздь,green,black,black,favatu = одуванчик?,1,ovarde,коридор,feranu,3,2020-05-13_13h51.47.770,words,2020.1.2,Win32,60,,,,,,,,,,,,,,,,,,,,,,,,,left,1.71365,0,35,35,35,1,,,,,,,,,,,,,,,,
,,,,,erfate,самолет,erfate.wav,самолет,наперсток,конверт,green,black,black,erfate = самолет?,1,renape,кроссворд,kanvidu,3,2020-05-13_13h51.47.770,words,2020.1.2,Win32,60,,,,,,,,,,,,,,,,,,,,,,,,,left,1.71632,0,36,36,36,1,,,,,,,,,,,,,,,,
,,,,,sulvidu,компас,sulvidu.wav,клубок,костыль,компас,black,black,green,sulvidu = компас?,1,enveku,шприц,venkere,3,2020-05-13_13h51.47.770,words,2020.1.2,Win32,60,,,,,,,,,,,,,,,,,,,,,,,,,left,1.739805,0,37,37,37,1,,,,,,,,,,,,,,,,
,,,,,tanibu,хобот,tanibu.wav,точилка,роза,хобот,black,black,green,tanibu = конверт?,0,trokele,терка,sulvidu,3,2020-05-13_13h51.47.770,words,2020.1.2,Win32,60,,,,,,,,,,,,,,,,,,,,,,,,,right,2.096725,0,38,38,38,1,,,,,,,,,,,,,,,,
,,,,,abadu,костыль,abadu.wav,кроссворд,пальма,костыль,black,black,green,abadu = домино?,0,invaltu,флаг,tivere,3,2020-05-13_13h51.47.770,words,2020.1.2,Win32,60,,,,,,,,,,,,,,,,,,,,,,,,,right,1.31688,0,39,39,39,1,,,,,,,,,,,,,,,,
,,,,,invaltu,флаг,invaltu.wav,ремень,флаг,стрела,black,green,black,invaltu = колокол?,0,tivere,конверт,erfate,3,2020-05-13_13h51.47.770,words,2020.1.2,Win32,60,,,,,,,,,,,,,,,,,,,,,,,,,,,,,,,,4.50622,tenove,"[""t"",""e"",""n"",""o"",""v"",""e"",""return""]","[2.477544999914244,2.695219999877736,3.2762949999887496,3.693974999943748,3.8857899999711663,4.109614999964833,4.506220000097528]",0,0,0,0,1,,,,,,,
,,,,,panabu,свисток,panabu.wav,свисток,пальма,стол,green,black,black,panabu = свисток?,1,savere,шашлык,vembare,3,2020-05-13_13h51.47.770,words,2020.1.2,Win32,60,,,,,,,,,,,,,,,,,,,,,,,,,,,,,,,,4.293615,savere,"[""s"",""a"",""v"",""e"",""d"",""e"",""backspace"",""backspace"",""r"",""e"",""return""]","[1.949934999924153,2.1962349999230355,2.5033950000070035,2.7178299999795854,2.879465000005439,3.0178499999456108,3.643629999831319,3.783820000011474,3.86170499981381,4.010194999864325,4.2936149998568]",0,1,1,1,1,,,,,,,
,,,,,kaltane,стрела,kaltane.wav,костюм,стрела,колбаса,black,green,black,kaltane = стрела?,1,sevade,утюг,tevone,3,2020-05-13_13h51.47.770,words,2020.1.2,Win32,60,,,,,,,,,,,,,,,,,,,,,,,,,,,,,,,,3.016635,sevade,"[""s"",""e"",""v"",""a"",""d"",""e"",""return""]","[1.3448900000657886,1.5603100000880659,1.96072500012815,2.3008350001182407,2.5147649999707937,2.6607300001196563,3.016635000007227]",0,2,2,2,1,,,,,,,
,,,,,aderu,пистолет,aderu.wav,пистолет,одуванчик,микрофон,green,black,black,aderu = пистолет?,1,panabu,свисток,savere,3,2020-05-13_13h51.47.770,words,2020.1.2,Win32,60,,,,,,,,,,,,,,,,,,,,,,,,,,,,,,,,4.56445,liere,"[""l"",""i"",""e"",""r"",""e"",""return""]","[3.198389999801293,3.6134799998253584,3.808869999833405,4.056744999950752,4.240884999977425,4.564449999947101]",0,3,3,3,1,,,,,,,
,,,,,enkalu,пальма,enkalu.wav,шприц,пальма,свисток,black,green,black,enkalu = пальма?,1,pakanu,мельница,lornitu,3,2020-05-13_13h51.47.770,words,2020.1.2,Win32,60,,,,,,,,,,,,,,,,,,,,,,,,,,,,,,,,5.756285,palige,"[""p"",""a"",""l"",""i"",""g"",""e"",""return""]","[2.9607899999246,3.284195000072941,4.278110000072047,4.54884499986656,5.001200000056997,5.2513649999164045,5.756284999893978]",0,4,4,4,1,,,,,,,
,,,,,senkide,мяч,senkide.wav,мяч,гранат,терка,green,black,black,senkide = стол?,0,maviru,ремень,pentave,3,2020-05-13_13h51.47.770,words,2020.1.2,Win32,60,,,,,,,,,,,,,,,,,,,,,,,,,,,,,,,,2.889585, ,"[""space"",""return""]","[2.6625299998559058,2.889584999997169]",0,5,5,5,1,,,,,,,
,,,,,akastu,ведро,akastu.wav,костыль,костюм,ведро,black,black,green,akastu = ведро?,1,aderu,пистолет,panabu,3,2020-05-13_13h51.47.770,words,2020.1.2,Win32,60,,,,,,,,,,,,,,,,,,,,,,,,,,,,,,,,4.206825,abare,"[""a"",""b"",""a"",""r"",""e"",""return""]","[1.269764999859035,3.2505850000306964,3.5349349998869,3.810109999962151,3.9432449999731034,4.206825000001118]",0,6,6,6,1,,,,,,,
,,,,,takuru,маяк,takuru.wav,наперсток,маяк,клубок,black,green,black,takuru = маяк?,1,larantu,веер,adiste,3,2020-05-13_13h51.47.770,words,2020.1.2,Win32,60,,,,,,,,,,,,,,,,,,,,,,,,,,,,,,,,3.87626,lorate,"[""l"",""o"",""r"",""a"",""t"",""e"",""return""]","[1.5791500001214445,2.195860000094399,2.7608749999199063,2.900804999982938,3.010844999924302,3.187565000029281,3.8762600000482053]",0,7,7,7,1,,,,,,,
,,,,,pakanu,мельница,pakanu.wav,мельница,аквариум,ремень,green,black,black,pakanu = мельница?,1,lornitu,микрофон,madide,3,2020-05-13_13h51.47.770,words,2020.1.2,Win32,60,,,,,,,,,,,,,,,,,,,,,,,,,,,,,,,,4.706745,loratine,"[""l"",""o"",""r"",""a"",""t"",""i"",""n"",""e"",""return""]","[2.3773550000041723,2.5598100000061095,2.898784999968484,3.4922799998894334,3.676160000031814,3.9100999999791384,4.180144999874756,4.383059999905527,4.70674500009045]",0,8,8,8,1,,,,,,,
,,,,,beskadu,колбаса,beskadu.wav,качели,хобот,колбаса,black,black,green,beskadu = колбаса?,1,enkalu,пальма,pakanu,3,2020-05-13_13h51.47.770,words,2020.1.2,Win32,60,,,,,,,,,,,,,,,,,,,,,,,,,,,,,,,,4.89676,enpalu,"[""e"",""n"",""p"",""a"",""l"",""u"",""return""]","[1.4135950000490993,2.567894999869168,3.694639999885112,3.8315600000787526,3.9304849999025464,4.64458499988541,4.8967599999159575]",0,9,9,9,1,,,,,,,
,,,,,venkere,аквариум,venkere.wav,аквариум,свисток,конверт,green,black,black,venkere = мяч?,0,abadu,костыль,invaltu,3,2020-05-13_13h51.47.770,words,2020.1.2,Win32,60,,,,,,,,,,,,,,,,,,,,,,,,,,,,,,,,3.306635,abadu,"[""a"",""b"",""a"",""d"",""u"",""return""]","[1.1606550000142306,1.784040000056848,2.192605000222102,2.4490450001321733,2.7426650000270456,3.30663500004448]",0,10,10,10,1,,,,,,,
,,,,,renape,кроссворд,renape.wav,кроссворд,гвоздь,мельница,green,black,black,renape = кроссворд?,1,kanvidu,клубок,enkade,3,2020-05-13_13h51.47.770,words,2020.1.2,Win32,60,,,,,,,,,,,,,,,,,,,,,,,,,,,,,,,,5.693225,kavide,"[""k"",""a"",""v"",""i"",""d"",""e"",""return""]","[2.9621550000738353,3.0940749999135733,3.5969799999147654,4.2942599998787045,5.210190000012517,5.377189999911934,5.693225000053644]",0,11,11,11,1,,,,,,,
,,,,,ovarde,коридор,ovarde.wav,роза,коридор,удочка,black,green,black,ovarde = коридор?,1,feranu,наперсток,nukene,3,2020-05-13_13h51.47.770,words,2020.1.2,Win32,60,,,,,,,,,,,,,,,,,,,,,,,,,,,,,,,,3.163765,farine,"[""f"",""a"",""r"",""i"",""n"",""e"",""return""]","[1.8489449999760836,2.0817299999762326,2.3242599999066442,2.5141399998683482,2.7840549999382347,2.917654999997467,3.1637649999465793]",0,12,12,12,1,,,,,,,
,,,,,nukene,колокол,nukene.wav,микрофон,колокол,веер,black,green,black,nukene = копилка?,0,enkontu,гранат,beskadu,3,2020-05-13_13h51.47.770,words,2020.1.2,Win32,60,,,,,,,,,,,,,,,,,,,,,,,,,,,,,,,,3.30815,enkade,"[""e"",""n"",""k"",""a"",""d"",""e"",""return""]","[1.2341000000014901,2.1957099998835474,2.479719999944791,2.6290599999483675,2.830034999875352,2.9764099998865277,3.3081499999389052]",0,13,13,13,1,,,,,,,
,,,,,tivere,конверт,tivere.wav,мяч,компас,конверт,black,black,green,tivere = костыль?,0,erfate,самолет,renape,3,2020-05-13_13h51.47.770,words,2020.1.2,Win32,60,,,,,,,,,,,,,,,,,,,,,,,,,,,,,,,,3.42478,erfate,"[""e"",""r"",""f"",""a"",""t"",""e"",""return""]","[1.333420000039041,1.5157449999824166,2.6118599998299032,2.835800000000745,2.996534999925643,3.1106999998446554,3.424780000001192]",0,14,14,14,1,,,,,,,
,,,,,sevade,утюг,sevade.wav,утюг,стрела,аквариум,green,black,black,sevade = утюг?,1,tevone,копилка,favatu,3,2020-05-13_13h51.47.770,words,2020.1.2,Win32,60,,,,,,,,,,,,,,,,,,,,,,,,,,,,,,,,4.488925,tevone,"[""t"",""e"",""v"",""o"",""b"",""backspace"",""n"",""e"",""return""]","[1.425529999891296,2.063859999878332,2.5909549999050796,2.9251149999909103,3.3110449998639524,3.8612899999134243,3.9906549998559058,4.241544999880716,4.488924999954179]",0,15,15,15,1,,,,,,,
,,,,,enkade,точилка,enkade.wav,шашлык,свисток,точилка,black,black,green,enkade = точилка?,1,takuru,маяк,larantu,3,2020-05-13_13h51.47.770,words,2020.1.2,Win32,60,,,,,,,,,,,,,,,,,,,,,,,,,,,,,,,,4.168005,tokaru,"[""t"",""o"",""k"",""a"",""r"",""u"",""return""]","[2.3108699999284,2.6932000000961125,3.2329400000162423,3.3471649999264628,3.596959999995306,3.7598699999507517,4.168005000101402]",0,16,16,16,1,,,,,,,
,,,,,adiste,костюм,adiste.wav,маяк,гранат,костюм,black,black,green,adiste = хобот?,0,kaltane,стрела,sevade,3,2020-05-13_13h51.47.770,words,2020.1.2,Win32,60,,,,,,,,,,,,,,,,,,,,,,,,,,,,,,,,4.30606,kavite,"[""k"",""a"",""v"",""i"",""t"",""e"",""return""]","[1.6450049998238683,1.8291749998461455,2.4637999997939914,2.8432849999517202,3.4600299999583513,3.892549999989569,4.306059999857098]",0,17,17,17,1,,,,,,,
,,,,,madide,домино,madide.wav,стрела,колокол,домино,black,black,green,madide = флаг?,0,devinde,стол,senkide,3,2020-05-13_13h51.47.770,words,2020.1.2,Win32,60,,,,,,,,,,,,,,,,,,,,,,,,,,,,,,,,2.97722,devence,"[""d"",""e"",""v"",""e"",""n"",""c"",""e"",""return""]","[1.3006099998019636,1.4610999999567866,1.7845799999777228,2.0501899998635054,2.4209149999078363,2.543794999830425,2.6781649999320507,2.9772200000006706]",0,18,18,18,1,,,,,,,
,,,,,devinde,стол,devinde.wav,компас,намордник,стол,black,black,green,devinde = костюм?,0,senkide,мяч,maviru,3,2020-05-13_13h51.47.770,words,2020.1.2,Win32,60,,,,,,,,,,,,,,,,,,,,,,,,,,,,,,,,3.524855,vakide,"[""v"",""a"",""k"",""i"",""d"",""e"",""return""]","[1.7968049999326468,2.0515749999321997,2.470454999944195,2.6948799998499453,2.933195000048727,3.054215000011027,3.5248549999669194]",0,19,19,19,1,,,,,,,
,,,,,pentave,роза,pentave.wav,мельница,роза,коридор,black,green,black,pentave = роза?,1,pikide,намордник,mugalu,3,2020-05-13_13h51.47.770,words,2020.1.2,Win32,60,,,,,,,,,,,,,,,,,,,,,,,,,,,,,,,,4.142465,pikadu,"[""p"",""i"",""k"",""a"",""d"",""u"",""return""]","[1.7609049999155104,2.080640000058338,2.2642949998844415,3.1811349999625236,3.5104799999389797,3.7281599999405444,4.142465000040829]",0,20,20,20,1,,,,,,,
,,,,,dinrase,гвоздь,dinrase.wav,гвоздь,самолет,клубок,green,black,black,dinrase = гвоздь?,1,akastu,ведро,aderu,3,2020-05-13_13h51.47.770,words,2020.1.2,Win32,60,,,,,,,,,,,,,,,,,,,,,,,,,,,,,,,,1.907515, ,"[""space"",""return""]","[1.7350649998988956,1.9075150000862777]",0,21,21,21,1,,,,,,,
,,,,,enkontu,гранат,enkontu.wav,шашлык,удочка,гранат,black,black,green,enkontu = гранат?,1,beskadu,колбаса,enkalu,3,2020-05-13_13h51.47.770,words,2020.1.2,Win32,60,,,,,,,,,,,,,,,,,,,,,,,,,,,,,,,,3.724395,buside,"[""b"",""u"",""s"",""i"",""d"",""e"",""return""]","[1.5782400001771748,2.2007200000807643,2.494120000163093,2.9778200001455843,3.1607200000435114,3.3171500000171363,3.7243950001429766]",0,22,22,22,1,,,,,,,
,,,,,feranu,наперсток,feranu.wav,маяк,коридор,наперсток,black,black,green,feranu = наперсток?,1,nukene,колокол,enkontu,3,2020-05-13_13h51.47.770,words,2020.1.2,Win32,60,,,,,,,,,,,,,,,,,,,,,,,,,,,,,,,,2.55977, ,"[""space"",""return""]","[2.34734999993816,2.5597699999343604]",0,23,23,23,1,,,,,,,
,,,,,lornitu,микрофон,lornitu.wav,микрофон,пальма,стрела,green,black,black,lornitu = терка?,0,madide,домино,devinde,3,2020-05-13_13h51.47.770,words,2020.1.2,Win32,60,,,,,,,,,,,,,,,,,,,,,,,,,,,,,,,,4.75855,madide,"[""n"",""backspace"",""m"",""a"",""d"",""i"",""d"",""r"",""backspace"",""e"",""return""]","[1.4744449998252094,1.9993849999736995,2.1388299998361617,2.4386849999427795,2.6725749999750406,3.0057349998969585,3.0752999999094754,3.6804099997971207,4.338664999930188,4.57740499987267,4.758549999911338]",0,24,24,24,1,,,,,,,
,,,,,savere,шашлык,savere.wav,шашлык,копилка,стрела,green,black,black,savere = шашлык?,1,vembare,удочка,tanibu,3,2020-05-13_13h51.47.770,words,2020.1.2,Win32,60,,,,,,,,,,,,,,,,,,,,,,,,,,,,,,,,3.70143,varbare,"[""v"",""a"",""r"",""b"",""a"",""r"",""e"",""return""]","[1.4664849999826401,1.7118699999991804,2.1452949999365956,2.748135000001639,3.030599999940023,3.2805099999532104,3.411390000022948,3.701429999899119]",0,25,25,25,1,,,,,,,
,,,,,pikide,намордник,pikide.wav,намордник,мельница,домино,green,black,black,pikide = микрофон?,0,mugalu,качели,dinrase,3,2020-05-13_13h51.47.770,words,2020.1.2,Win32,60,,,,,,,,,,,,,,,,,,,,,,,,,,,,,,,,3.642485,mugalu,"[""m"",""u"",""g"",""a"",""l"",""u"",""return""]","[1.579935000045225,2.028415000066161,2.50931500014849,2.800865000113845,3.043210000032559,3.3935850001871586,3.6424849999602884]",0,26,26,26,1,,,,,,,
,,,,,mugalu,качели,mugalu.wav,пистолет,самолет,качели,black,black,green,mugalu = качели?,1,dinrase,гвоздь,akastu,3,2020-05-13_13h51.47.770,words,2020.1.2,Win32,60,,,,,,,,,,,,,,,,,,,,,,,,,,,,,,,,4.46494,darase,"[""d"",""a"",""r"",""a"",""s"",""e"",""return""]","[2.812574999872595,3.02980999997817,3.4424850000068545,3.8001449999865144,3.975719999987632,4.141749999951571,4.46493999985978]",0,27,27,27,1,,,,,,,
,,,,,kanvidu,клубок,kanvidu.wav,компас,клубок,ведро,black,green,black,kanvidu = аквариум?,0,enkade,точилка,takuru,3,2020-05-13_13h51.47.770,words,2020.1.2,Win32,60,,,,,,,,,,,,,,,,,,,,,,,,,,,,,,,,3.524875,envede,"[""e"",""n"",""v"",""e"",""d"",""e"",""return""]","[1.135245000012219,2.3937800000421703,2.778690000064671,3.002640000078827,3.160020000068471,3.295535000041127,3.5248750001192093]",0,28,28,28,1,,,,,,,
,,,,,vembare,удочка,vembare.wav,удочка,утюг,мяч,green,black,black,vembare = удочка?,1,tanibu,хобот,trokele,3,2020-05-13_13h51.47.770,words,2020.1.2,Win32,60,,,,,,,,,,,,,,,,,,,,,,,,,,,,,,,,4.211495,tailuge,"[""t"",""a"",""i"",""l"",""u"",""g"",""e"",""return""]","[1.9371699998155236,2.3769199999514967,2.626979999942705,2.9685149998404086,3.4436049999203533,3.830824999837205,4.043534999946132,4.211494999937713]",0,29,29,29,1,,,,,,,
,,,,,maviru,ремень,maviru.wav,шашлык,маяк,ремень,black,black,green,maviru = веер?,0,pentave,роза,pikide,3,2020-05-13_13h51.47.770,words,2020.1.2,Win32,60,,,,,,,,,,,,,,,,,,,,,,,,,,,,,,,,1.69705, ,"[""space"",""return""]","[1.511350000044331,1.6970499998424202]",0,30,30,30,1,,,,,,,
,,,,,tevone,копилка,tevone.wav,шашлык,копилка,веер,black,green,black,tevone = клубок?,0,favatu,одуванчик,ovarde,3,2020-05-13_13h51.47.770,words,2020.1.2,Win32,60,,,,,,,,,,,,,,,,,,,,,,,,,,,,,,,,3.8933,favare,"[""f"",""a"",""l"",""backspace"",""v"",""a"",""r"",""e"",""return""]","[1.3676150001119822,1.599370000185445,2.014265000121668,2.883905000053346,3.099180000135675,3.3273599999956787,3.5657399999909103,3.708525000140071,3.8933000001125038]",0,31,31,31,1,,,,,,,
,,,,,enveku,шприц,enveku.wav,одуванчик,флаг,шприц,black,black,green,enveku = шприц?,1,venkere,аквариум,abadu,3,2020-05-13_13h51.47.770,words,2020.1.2,Win32,60,,,,,,,,,,,,,,,,,,,,,,,,,,,,,,,,1.79212, ,"[""space"",""return""]","[1.619609999936074,1.7921199998818338]",0,32,32,32,1,,,,,,,
,,,,,larantu,веер,larantu.wav,веер,костюм,шприц,green,black,black,larantu = намордник?,0,adiste,костюм,kaltane,3,2020-05-13_13h51.47.770,words,2020.1.2,Win32,60,,,,,,,,,,,,,,,,,,,,,,,,,,,,,,,,3.558575,adiste,"[""a"",""d"",""i"",""s"",""t"",""e"",""return""]","[1.085410000057891,1.361269999993965,2.6439699998591095,2.7933849999681115,3.0440599999856204,3.2270949999801815,3.558574999915436]",0,33,33,33,1,,,,,,,
,,,,,trokele,терка,trokele.wav,терка,домино,качели,green,black,black,trokele = ремень?,0,sulvidu,компас,enveku,3,2020-05-13_13h51.47.770,words,2020.1.2,Win32,60,,,,,,,,,,,,,,,,,,,,,,,,,,,,,,,,3.87369,selvide,"[""s"",""e"",""l"",""v"",""i"",""d"",""e"",""return""]","[1.8780999998562038,2.1287000000011176,2.5774449999444187,3.0282850000075996,3.2179749999195337,3.4284800000023097,3.604679999873042,3.8736899998039007]",0,34,34,34,1,,,,,,,
,,,,,favatu,одуванчик,favatu.wav,одуванчик,компас,гвоздь,green,black,black,favatu = одуванчик?,1,ovarde,коридор,feranu,3,2020-05-13_13h51.47.770,words,2020.1.2,Win32,60,,,,,,,,,,,,,,,,,,,,,,,,,,,,,,,,4.075955,overde,"[""a"",""v"",""backspace"",""backspace"",""backspace"",""o"",""v"",""e"",""r"",""d"",""e"",""return""]","[1.2453900000546128,1.745189999928698,2.2450049999170005,2.38302499987185,2.4617200000211596,2.736829999834299,3.06078499997966,3.2973350000102073,3.4473699999507517,3.620189999928698,3.7506399999838322,4.075955000007525]",0,35,35,35,1,,,,,,,
,,,,,erfate,самолет,erfate.wav,самолет,наперсток,конверт,green,black,black,erfate = самолет?,1,renape,кроссворд,kanvidu,3,2020-05-13_13h51.47.770,words,2020.1.2,Win32,60,,,,,,,,,,,,,,,,,,,,,,,,,,,,,,,,6.365025,enkere,"[""e"",""n"",""k"",""e"",""r"",""e"",""backspace"",""backspace"",""backspace"",""backspace"",""backspace"",""e"",""n"",""k"",""e"",""r"",""e"",""return""]","[1.3618300000671297,2.3104499999899417,2.794895000057295,2.962569999974221,3.130275000119582,3.28279500012286,3.996375000104308,4.126930000027642,4.23066999996081,4.359815000090748,4.578830000013113,4.776989999925718,4.982409999938682,5.944425000110641,6.043409999925643,6.179780000122264,6.284704999998212,6.3650249999482185]",0,36,36,36,1,,,,,,,
,,,,,sulvidu,компас,sulvidu.wav,клубок,костыль,компас,black,black,green,sulvidu = компас?,1,enveku,шприц,venkere,3,2020-05-13_13h51.47.770,words,2020.1.2,Win32,60,,,,,,,,,,,,,,,,,,,,,,,,,,,,,,,,5.256115,enkalu,"[""v"",""e"",""n"",""k"",""a"",""l"",""u"",""return""]","[1.7618050000164658,1.9815650000236928,3.244094999972731,3.5793000000994653,4.313785000005737,4.54499000008218,4.967695000115782,5.256114999996498]",0,37,37,37,1,,,,,,,
,,,,,tanibu,хобот,tanibu.wav,точилка,роза,хобот,black,black,green,tanibu = конверт?,0,trokele,терка,sulvidu,3,2020-05-13_13h51.47.770,words,2020.1.2,Win32,60,,,,,,,,,,,,,,,,,,,,,,,,,,,,,,,,6.19035,trokale,"[""t"",""r"",""i"",""k"",""a"",""l"",""e"",""backspace"",""backspace"",""backspace"",""backspace"",""backspace"",""backspace"",""backspace"",""t"",""r"",""o"",""k"",""a"",""l"",""e"",""return""]","[1.8116800000425428,1.9825249998830259,2.36117499996908,2.6778199998661876,2.864079999970272,2.9706800000276417,3.113514999859035,3.730299999937415,3.84726499998942,3.9615299999713898,4.071059999987483,4.197174999862909,4.312995000043884,4.4443900000769645,4.701884999871254,4.846394999884069,5.249314999906346,5.632259999867529,5.788029999937862,5.910829999949783,6.0284750000573695,6.190350000048056]",0,38,38,38,1,,,,,,,
,,,,,abadu,костыль,abadu.wav,кроссворд,пальма,костыль,black,black,green,abadu = домино?,0,invaltu,флаг,tivere,3,2020-05-13_13h51.47.770,words,2020.1.2,Win32,60,,,,,,,,,,,,,,,,,,,,,,,,,,,,,,,,2.04396,,"[""space"",""return""]","[1.92818499985151,2.043959999922663]",0,39,39,39,1,,,,,,,
,,,,,invaltu,флаг,invaltu.wav,ремень,флаг,стрела,black,green,black,invaltu = колокол?,0,tivere,конверт,erfate,3,2020-05-13_13h51.47.770,words,2020.1.2,Win32,60,,,,,,,,,,,,,,,,,,,,,,,,,,,,,,,,,,,,,,,,,right,2.452995,0,0,0,0,1
,,,,,panabu,свисток,panabu.wav,свисток,пальма,стол,green,black,black,panabu = свисток?,1,savere,шашлык,vembare,3,2020-05-13_13h51.47.770,words,2020.1.2,Win32,60,,,,,,,,,,,,,,,,,,,,,,,,,,,,,,,,,,,,,,,,,right,1.738945,0,1,1,1,1
,,,,,kaltane,стрела,kaltane.wav,костюм,стрела,колбаса,black,green,black,kaltane = стрела?,1,sevade,утюг,tevone,3,2020-05-13_13h51.47.770,words,2020.1.2,Win32,60,,,,,,,,,,,,,,,,,,,,,,,,,,,,,,,,,,,,,,,,,right,1.525155,0,2,2,2,1
,,,,,aderu,пистолет,aderu.wav,пистолет,одуванчик,микрофон,green,black,black,aderu = пистолет?,1,panabu,свисток,savere,3,2020-05-13_13h51.47.770,words,2020.1.2,Win32,60,,,,,,,,,,,,,,,,,,,,,,,,,,,,,,,,,,,,,,,,,right,3.25508,0,3,3,3,1
,,,,,enkalu,пальма,enkalu.wav,шприц,пальма,свисток,black,green,black,enkalu = пальма?,1,pakanu,мельница,lornitu,3,2020-05-13_13h51.47.770,words,2020.1.2,Win32,60,,,,,,,,,,,,,,,,,,,,,,,,,,,,,,,,,,,,,,,,,right,1.055185,0,4,4,4,1
,,,,,senkide,мяч,senkide.wav,мяч,гранат,терка,green,black,black,senkide = стол?,0,maviru,ремень,pentave,3,2020-05-13_13h51.47.770,words,2020.1.2,Win32,60,,,,,,,,,,,,,,,,,,,,,,,,,,,,,,,,,,,,,,,,,left,1.843925,0,5,5,5,1
,,,,,akastu,ведро,akastu.wav,костыль,костюм,ведро,black,black,green,akastu = ведро?,1,aderu,пистолет,panabu,3,2020-05-13_13h51.47.770,words,2020.1.2,Win32,60,,,,,,,,,,,,,,,,,,,,,,,,,,,,,,,,,,,,,,,,,left,1.381335,0,6,6,6,1
,,,,,takuru,маяк,takuru.wav,наперсток,маяк,клубок,black,green,black,takuru = маяк?,1,larantu,веер,adiste,3,2020-05-13_13h51.47.770,words,2020.1.2,Win32,60,,,,,,,,,,,,,,,,,,,,,,,,,,,,,,,,,,,,,,,,,right,0.915005,0,7,7,7,1
,,,,,pakanu,мельница,pakanu.wav,мельница,аквариум,ремень,green,black,black,pakanu = мельница?,1,lornitu,микрофон,madide,3,2020-05-13_13h51.47.770,words,2020.1.2,Win32,60,,,,,,,,,,,,,,,,,,,,,,,,,,,,,,,,,,,,,,,,,right,0.8215,0,8,8,8,1
,,,,,beskadu,колбаса,beskadu.wav,качели,хобот,колбаса,black,black,green,beskadu = колбаса?,1,enkalu,пальма,pakanu,3,2020-05-13_13h51.47.770,words,2020.1.2,Win32,60,,,,,,,,,,,,,,,,,,,,,,,,,,,,,,,,,,,,,,,,,left,1.206925,0,9,9,9,1
,,,,,venkere,аквариум,venkere.wav,аквариум,свисток,конверт,green,black,black,venkere = мяч?,0,abadu,костыль,invaltu,3,2020-05-13_13h51.47.770,words,2020.1.2,Win32,60,,,,,,,,,,,,,,,,,,,,,,,,,,,,,,,,,,,,,,,,,right,1.68731,0,10,10,10,1
,,,,,renape,кроссворд,renape.wav,кроссворд,гвоздь,мельница,green,black,black,renape = кроссворд?,1,kanvidu,клубок,enkade,3,2020-05-13_13h51.47.770,words,2020.1.2,Win32,60,,,,,,,,,,,,,,,,,,,,,,,,,,,,,,,,,,,,,,,,,right,1.33785,0,11,11,11,1
,,,,,ovarde,коридор,ovarde.wav,роза,коридор,удочка,black,green,black,ovarde = коридор?,1,feranu,наперсток,nukene,3,2020-05-13_13h51.47.770,words,2020.1.2,Win32,60,,,,,,,,,,,,,,,,,,,,,,,,,,,,,,,,,,,,,,,,,right,1.287985,0,12,12,12,1
,,,,,nukene,колокол,nukene.wav,микрофон,колокол,веер,black,green,black,nukene = копилка?,0,enkontu,гранат,beskadu,3,2020-05-13_13h51.47.770,words,2020.1.2,Win32,60,,,,,,,,,,,,,,,,,,,,,,,,,,,,,,,,,,,,,,,,,right,0.95472,0,13,13,13,1
,,,,,tivere,конверт,tivere.wav,мяч,компас,конверт,black,black,green,tivere = костыль?,0,erfate,самолет,renape,3,2020-05-13_13h51.47.770,words,2020.1.2,Win32,60,,,,,,,,,,,,,,,,,,,,,,,,,,,,,,,,,,,,,,,,,left,1.057265,0,14,14,14,1
,,,,,sevade,утюг,sevade.wav,утюг,стрела,аквариум,green,black,black,sevade = утюг?,1,tevone,копилка,favatu,3,2020-05-13_13h51.47.770,words,2020.1.2,Win32,60,,,,,,,,,,,,,,,,,,,,,,,,,,,,,,,,,,,,,,,,,right,1.754205,0,15,15,15,1
,,,,,enkade,точилка,enkade.wav,шашлык,свисток,точилка,black,black,green,enkade = точилка?,1,takuru,маяк,larantu,3,2020-05-13_13h51.47.770,words,2020.1.2,Win32,60,,,,,,,,,,,,,,,,,,,,,,,,,,,,,,,,,,,,,,,,,right,1.405225,0,16,16,16,1
,,,,,adiste,костюм,adiste.wav,маяк,гранат,костюм,black,black,green,adiste = хобот?,0,kaltane,стрела,sevade,3,2020-05-13_13h51.47.770,words,2020.1.2,Win32,60,,,,,,,,,,,,,,,,,,,,,,,,,,,,,,,,,,,,,,,,,right,0.809175,0,17,17,17,1
,,,,,madide,домино,madide.wav,стрела,колокол,домино,black,black,green,madide = флаг?,0,devinde,стол,senkide,3,2020-05-13_13h51.47.770,words,2020.1.2,Win32,60,,,,,,,,,,,,,,,,,,,,,,,,,,,,,,,,,,,,,,,,,right,1.12697,0,18,18,18,1
,,,,,devinde,стол,devinde.wav,компас,намордник,стол,black,black,green,devinde = костюм?,0,senkide,мяч,maviru,3,2020-05-13_13h51.47.770,words,2020.1.2,Win32,60,,,,,,,,,,,,,,,,,,,,,,,,,,,,,,,,,,,,,,,,,left,1.33211,0,19,19,19,1
,,,,,pentave,роза,pentave.wav,мельница,роза,коридор,black,green,black,pentave = роза?,1,pikide,намордник,mugalu,3,2020-05-13_13h51.47.770,words,2020.1.2,Win32,60,,,,,,,,,,,,,,,,,,,,,,,,,,,,,,,,,,,,,,,,,right,1.021635,0,20,20,20,1
,,,,,dinrase,гвоздь,dinrase.wav,гвоздь,самолет,клубок,green,black,black,dinrase = гвоздь?,1,akastu,ведро,aderu,3,2020-05-13_13h51.47.770,words,2020.1.2,Win32,60,,,,,,,,,,,,,,,,,,,,,,,,,,,,,,,,,,,,,,,,,right,1.80348,0,21,21,21,1
,,,,,enkontu,гранат,enkontu.wav,шашлык,удочка,гранат,black,black,green,enkontu = гранат?,1,beskadu,колбаса,enkalu,3,2020-05-13_13h51.47.770,words,2020.1.2,Win32,60,,,,,,,,,,,,,,,,,,,,,,,,,,,,,,,,,,,,,,,,,left,1.859705,0,22,22,22,1
,,,,,feranu,наперсток,feranu.wav,маяк,коридор,наперсток,black,black,green,feranu = наперсток?,1,nukene,колокол,enkontu,3,2020-05-13_13h51.47.770,words,2020.1.2,Win32,60,,,,,,,,,,,,,,,,,,,,,,,,,,,,,,,,,,,,,,,,,left,1.286385,0,23,23,23,1
,,,,,lornitu,микрофон,lornitu.wav,микрофон,пальма,стрела,green,black,black,lornitu = терка?,0,madide,домино,devinde,3,2020-05-13_13h51.47.770,words,2020.1.2,Win32,60,,,,,,,,,,,,,,,,,,,,,,,,,,,,,,,,,,,,,,,,,right,1.556045,0,24,24,24,1
,,,,,savere,шашлык,savere.wav,шашлык,копилка,стрела,green,black,black,savere = шашлык?,1,vembare,удочка,tanibu,3,2020-05-13_13h51.47.770,words,2020.1.2,Win32,60,,,,,,,,,,,,,,,,,,,,,,,,,,,,,,,,,,,,,,,,,right,1.838525,0,25,25,25,1
,,,,,pikide,намордник,pikide.wav,намордник,мельница,домино,green,black,black,pikide = микрофон?,0,mugalu,качели,dinrase,3,2020-05-13_13h51.47.770,words,2020.1.2,Win32,60,,,,,,,,,,,,,,,,,,,,,,,,,,,,,,,,,,,,,,,,,right,1.704805,0,26,26,26,1
,,,,,mugalu,качели,mugalu.wav,пистолет,самолет,качели,black,black,green,mugalu = качели?,1,dinrase,гвоздь,akastu,3,2020-05-13_13h51.47.770,words,2020.1.2,Win32,60,,,,,,,,,,,,,,,,,,,,,,,,,,,,,,,,,,,,,,,,,right,1.60764,0,27,27,27,1
,,,,,kanvidu,клубок,kanvidu.wav,компас,клубок,ведро,black,green,black,kanvidu = аквариум?,0,enkade,точилка,takuru,3,2020-05-13_13h51.47.770,words,2020.1.2,Win32,60,,,,,,,,,,,,,,,,,,,,,,,,,,,,,,,,,,,,,,,,,left,1.576425,0,28,28,28,1
,,,,,vembare,удочка,vembare.wav,удочка,утюг,мяч,green,black,black,vembare = удочка?,1,tanibu,хобот,trokele,3,2020-05-13_13h51.47.770,words,2020.1.2,Win32,60,,,,,,,,,,,,,,,,,,,,,,,,,,,,,,,,,,,,,,,,,right,1.904435,0,29,29,29,1
,,,,,maviru,ремень,maviru.wav,шашлык,маяк,ремень,black,black,green,maviru = веер?,0,pentave,роза,pikide,3,2020-05-13_13h51.47.770,words,2020.1.2,Win32,60,,,,,,,,,,,,,,,,,,,,,,,,,,,,,,,,,,,,,,,,,right,1.48269,0,30,30,30,1
,,,,,tevone,копилка,tevone.wav,шашлык,копилка,веер,black,green,black,tevone = клубок?,0,favatu,одуванчик,ovarde,3,2020-05-13_13h51.47.770,words,2020.1.2,Win32,60,,,,,,,,,,,,,,,,,,,,,,,,,,,,,,,,,,,,,,,,,right,0.957595,0,31,31,31,1
,,,,,enveku,шприц,enveku.wav,одуванчик,флаг,шприц,black,black,green,enveku = шприц?,1,venkere,аквариум,abadu,3,2020-05-13_13h51.47.770,words,2020.1.2,Win32,60,,,,,,,,,,,,,,,,,,,,,,,,,,,,,,,,,,,,,,,,,right,1.12581,0,32,32,32,1
,,,,,larantu,веер,larantu.wav,веер,костюм,шприц,green,black,black,larantu = намордник?,0,adiste,костюм,kaltane,3,2020-05-13_13h51.47.770,words,2020.1.2,Win32,60,,,,,,,,,,,,,,,,,,,,,,,,,,,,,,,,,,,,,,,,,right,2.57856,0,33,33,33,1
,,,,,trokele,терка,trokele.wav,терка,домино,качели,green,black,black,trokele = ремень?,0,sulvidu,компас,enveku,3,2020-05-13_13h51.47.770,words,2020.1.2,Win32,60,,,,,,,,,,,,,,,,,,,,,,,,,,,,,,,,,,,,,,,,,right,3.136525,0,34,34,34,1
,,,,,favatu,одуванчик,favatu.wav,одуванчик,компас,гвоздь,green,black,black,favatu = одуванчик?,1,ovarde,коридор,feranu,3,2020-05-13_13h51.47.770,words,2020.1.2,Win32,60,,,,,,,,,,,,,,,,,,,,,,,,,,,,,,,,,,,,,,,,,right,2.82105,0,35,35,35,1
,,,,,erfate,самолет,erfate.wav,самолет,наперсток,конверт,green,black,black,erfate = самолет?,1,renape,кроссворд,kanvidu,3,2020-05-13_13h51.47.770,words,2020.1.2,Win32,60,,,,,,,,,,,,,,,,,,,,,,,,,,,,,,,,,,,,,,,,,right,3.38798,0,36,36,36,1
,,,,,sulvidu,компас,sulvidu.wav,клубок,костыль,компас,black,black,green,sulvidu = компас?,1,enveku,шприц,venkere,3,2020-05-13_13h51.47.770,words,2020.1.2,Win32,60,,,,,,,,,,,,,,,,,,,,,,,,,,,,,,,,,,,,,,,,,right,2.74566,0,37,37,37,1
,,,,,tanibu,хобот,tanibu.wav,точилка,роза,хобот,black,black,green,tanibu = конверт?,0,trokele,терка,sulvidu,3,2020-05-13_13h51.47.770,words,2020.1.2,Win32,60,,,,,,,,,,,,,,,,,,,,,,,,,,,,,,,,,,,,,,,,,right,2.70471,0,38,38,38,1
,,,,,abadu,костыль,abadu.wav,кроссворд,пальма,костыль,black,black,green,abadu = домино?,0,invaltu,флаг,tivere,3,2020-05-13_13h51.47.770,words,2020.1.2,Win32,60,,,,,,,,,,,,,,,,,,,,,,,,,,,,,,,,,,,,,,,,,left,2.72508,0,39,39,39,1
